T [ms],AccX [mg],AccY [mg],AccZ [mg],GyroX [mdps],GyroY [mdps],GyroZ [mdps],MagX [mgauss],MagY [mgauss],MagZ [mgauss],P [mB],T [�C],H [%]
13,-16,-14,1031,-700,-5530,490,276,-951,-49, 1020.53, 27.94, 55.4
63,-16,-14,1031,-700,-5530,490,276,-951,-49, 1020.53, 27.94, 55.4
113,-16,-14,1031,-700,-5530,490,276,-951,-49, 1020.53, 27.94, 55.4
163,-16,-14,1031,-700,-5530,490,276,-951,-49, 1020.53, 27.94, 55.4
213,-16,-14,1031,-700,-5530,490,276,-951,-49, 1020.53, 27.94, 55.4
263,-16,-14,1031,-700,-5530,490,276,-951,-49, 1020.53, 27.94, 55.4
313,-16,-14,1031,-700,-5530,490,276,-951,-49, 1020.53, 27.94, 55.4
363,-16,-14,1031,-700,-5530,490,276,-951,-49, 1020.53, 27.94, 55.4
413,-16,-14,1031,-700,-5530,490,276,-951,-49, 1020.53, 27.94, 55.4
463,-16,-14,1031,-700,-5530,490,276,-951,-49, 1020.53, 27.94, 55.4
513,-16,-14,1031,-700,-5530,490,276,-951,-49, 1020.53, 27.94, 55.4
563,-16,-14,1031,-700,-5530,490,276,-951,-49, 1020.53, 27.94, 55.4
613,-16,-14,1031,-700,-5530,490,276,-951,-49, 1020.53, 27.94, 55.4
663,-16,-14,1031,-700,-5530,490,276,-951,-49, 1020.53, 27.94, 55.4
713,-16,-14,1031,-700,-5530,490,276,-951,-49, 1020.53, 27.94, 55.4
763,-16,-14,1031,-700,-5530,490,276,-951,-49, 1020.53, 27.94, 55.4
813,-16,-14,1031,-700,-5530,490,276,-951,-49, 1020.53, 27.94, 55.4
863,-16,-14,1031,-700,-5530,490,276,-951,-49, 1020.53, 27.94, 55.4
913,-16,-14,1031,-700,-5530,490,276,-951,-49, 1020.53, 27.94, 55.4
963,-16,-14,1031,-700,-5530,490,276,-951,-49, 1020.53, 27.94, 55.4
1013,-16,-14,1031,-700,-5530,490,276,-951,-49, 1020.53, 27.94, 55.4
1063,-16,-14,1031,-700,-5530,490,276,-951,-49, 1020.53, 27.94, 55.4
1113,-16,-14,1031,-700,-5530,490,276,-951,-49, 1020.53, 27.94, 55.4
1163,-16,-14,1031,-700,-5530,490,276,-951,-49, 1020.53, 27.94, 55.4
1213,-16,-14,1031,-700,-5530,490,276,-951,-49, 1020.53, 27.94, 55.4
1263,-16,-14,1031,-700,-5530,490,276,-951,-49, 1020.53, 27.94, 55.4
1313,-16,-14,1031,-700,-5530,490,276,-951,-49, 1020.53, 27.94, 55.4
1363,-16,-14,1031,-700,-5530,490,276,-951,-49, 1020.53, 27.94, 55.4
1413,-16,-14,1031,-700,-5530,490,276,-951,-49, 1020.53, 27.94, 55.4
1463,-16,-14,1031,-700,-5530,490,276,-951,-49, 1020.53, 27.94, 55.4
1513,-16,-14,1031,-700,-5530,490,276,-951,-49, 1020.53, 27.94, 55.4
1563,-16,-14,1031,-700,-5530,490,276,-951,-49, 1020.53, 27.94, 55.4
1613,-16,-14,1031,-700,-5530,490,276,-951,-49, 1020.53, 27.94, 55.4
1663,-16,-14,1031,-700,-5530,490,276,-951,-49, 1020.53, 27.94, 55.4
1713,-16,-14,1031,-700,-5530,490,276,-951,-49, 1020.53, 27.94, 55.4
1763,-16,-14,1031,-700,-5530,490,276,-951,-49, 1020.53, 27.94, 55.4
1813,-15,-15,1030,-840,-5250,490,274,-952,-49, 1020.58, 27.92, 55.4
1863,-15,-15,1031,-910,-5040,490,280,-954,-51, 1020.54, 27.92, 55.4
1913,-12,-15,1031,-980,-4830,490,271,-945,-55, 1020.48, 27.92, 55.4
1963,-14,-14,1032,-1050,-4690,490,271,-955,-52, 1020.56, 27.94, 55.4
2013,-12,-16,1030,-1050,-4410,490,273,-955,-55, 1020.57, 27.94, 55.4
2063,-11,-14,1029,-1050,-4340,490,276,-951,-55, 1020.52, 27.89, 55.4
2113,-13,-16,1030,-1120,-4340,490,265,-951,-46, 1020.54, 27.89, 55.3
2163,-11,-14,1031,-1050,-4270,490,276,-952,-51, 1020.54, 27.92, 55.3
2213,-13,-14,1032,-1050,-4270,490,270,-954,-55, 1020.54, 27.92, 55.3
2263,-11,-14,1030,-1050,-4200,490,273,-952,-46, 1020.50, 27.92, 55.3
2313,-12,-14,1032,-1050,-4130,490,273,-951,-48, 1020.51, 27.89, 55.3
2363,-11,-15,1031,-1050,-4130,490,274,-952,-48, 1020.57, 27.89, 55.3
2413,-12,-16,1032,-1050,-4130,490,276,-951,-48, 1020.43, 27.90, 55.3
2463,-11,-17,1029,-1050,-4060,490,274,-948,-52, 1020.52, 27.92, 55.3
2513,-11,-15,1032,-1050,-4130,490,274,-949,-51, 1020.56, 27.92, 55.3
2563,-11,-16,1029,-980,-4130,490,276,-948,-45, 1020.53, 27.94, 55.3
2613,-12,-16,1034,-980,-4130,490,280,-945,-48, 1020.49, 27.94, 55.3
2663,-11,-15,1030,-980,-4060,490,270,-948,-58, 1020.58, 27.94, 55.4
2713,-11,-14,1031,-1050,-4130,490,280,-946,-51, 1020.51, 27.94, 55.4
2763,-12,-17,1030,-980,-4060,490,276,-955,-51, 1020.52, 27.94, 55.3
2813,-12,-17,1033,-1050,-4130,490,268,-954,-48, 1020.54, 27.98, 55.3
2863,-11,-16,1029,-980,-4130,490,271,-954,-52, 1020.53, 27.98, 55.3
2913,-10,-15,1032,-980,-4060,490,271,-951,-48, 1020.54, 27.94, 55.4
2963,-10,-17,1030,-980,-4060,490,276,-946,-51, 1020.56, 27.94, 55.4
3013,-13,-17,1033,-1050,-4060,490,273,-954,-51, 1020.49, 27.94, 55.3
3063,-11,-17,1030,-980,-3990,490,277,-957,-55, 1020.50, 27.89, 55.3
3113,-13,-18,1033,-1050,-4060,490,273,-957,-49, 1020.45, 27.90, 55.3
3163,-13,-14,1032,-980,-4060,490,280,-951,-48, 1020.54, 27.90, 55.4
3213,-11,-15,1033,-980,-4060,490,271,-945,-51, 1020.55, 27.89, 55.4
3263,-12,-17,1032,-980,-4060,490,273,-949,-52, 1020.54, 27.89, 55.3
3313,-11,-16,1031,-980,-3990,490,271,-957,-49, 1020.56, 27.90, 55.3
3363,-12,-16,1032,-980,-4060,490,270,-945,-54, 1020.54, 27.92, 55.3
3413,-11,-15,1030,-980,-3990,490,270,-951,-51, 1020.58, 27.92, 55.3
3463,-12,-17,1030,-980,-3990,490,271,-945,-51, 1020.50, 27.94, 55.3
3513,-9,-16,1032,-980,-4060,490,279,-949,-45, 1020.49, 27.94, 55.2
3563,-12,-17,1032,-980,-4060,490,274,-951,-54, 1020.51, 27.94, 55.2
3613,-13,-17,1031,-980,-3990,490,270,-952,-45, 1020.49, 27.92, 55.2
3663,-12,-14,1034,-980,-3990,560,273,-954,-46, 1020.54, 27.92, 55.2
3713,-11,-15,1031,-980,-3990,490,271,-949,-48, 1020.52, 27.94, 55.2
3763,-11,-15,1030,-1050,-3990,490,273,-954,-55, 1020.52, 27.94, 55.2
3813,-10,-16,1031,-980,-4060,490,265,-951,-52, 1020.50, 27.94, 55.3
3863,-11,-16,1033,-980,-4060,560,274,-952,-54, 1020.51, 27.94, 55.3
3913,-11,-16,1032,-980,-3990,560,276,-945,-49, 1020.51, 27.94, 55.2
3963,-10,-15,1033,-980,-3990,560,273,-952,-51, 1020.54, 27.94, 55.2
4013,-11,-17,1029,-980,-3920,560,267,-946,-55, 1020.53, 27.94, 55.2
4063,-11,-17,1033,-1050,-3990,490,274,-954,-52, 1020.56, 27.96, 55.2
4113,-12,-14,1029,-980,-3990,560,273,-955,-46, 1020.52, 27.94, 55.2
4163,-11,-15,1033,-980,-3990,560,276,-951,-52, 1020.55, 27.94, 55.3
4213,-10,-14,1031,-980,-4060,560,274,-951,-55, 1020.53, 27.94, 55.3
4263,-10,-17,1030,-980,-3990,490,279,-949,-52, 1020.49, 27.94, 55.3
4313,-11,-16,1033,-1050,-3990,490,271,-951,-58, 1020.49, 27.94, 55.2
4362,-12,-15,1030,-980,-3990,560,267,-954,-54, 1020.50, 27.92, 55.2
4411,-11,-16,1034,-1050,-3990,560,270,-954,-46, 1020.46, 27.92, 55.2
4461,-12,-16,1030,-980,-3990,490,279,-946,-48, 1020.52, 27.92, 55.2
4511,-10,-15,1032,-1050,-4060,560,277,-955,-45, 1020.50, 27.92, 55.2
4561,-10,-18,1032,-1050,-3990,560,277,-951,-49, 1020.51, 27.92, 55.2
4611,-12,-16,1033,-1050,-4060,560,271,-954,-54, 1020.50, 27.92, 55.2
4661,-11,-17,1030,-980,-3990,560,270,-954,-54, 1020.53, 27.92, 55.2
4711,-12,-16,1032,-980,-3990,560,267,-949,-49, 1020.49, 27.92, 55.2
4761,-10,-17,1031,-980,-3990,560,267,-952,-52, 1020.56, 27.92, 55.2
4811,-10,-16,1033,-1050,-3990,560,267,-949,-58, 1020.52, 27.92, 55.2
4861,-10,-16,1031,-980,-4060,560,274,-949,-52, 1020.53, 27.92, 55.2
4911,-12,-16,1033,-1050,-4060,560,267,-955,-57, 1020.50, 27.92, 55.3
4961,-10,-17,1030,-980,-3920,560,271,-948,-46, 1020.61, 27.92, 55.2
5011,-11,-17,1035,-980,-3920,560,271,-958,-49, 1020.59, 27.90, 55.2
5061,-11,-16,1031,-1050,-3990,560,268,-960,-52, 1020.54, 27.90, 55.2
5111,-10,-16,1032,-980,-4060,560,273,-952,-48, 1020.52, 27.87, 55.2
5161,-9,-17,1034,-980,-3990,560,273,-952,-54, 1020.42, 27.87, 55.2
5211,-13,-17,1032,-1050,-3990,560,274,-952,-51, 1020.50, 27.92, 55.2
5261,-11,-18,1033,-1050,-3990,560,277,-949,-54, 1020.47, 27.89, 55.2
5311,-10,-16,1030,-980,-3990,560,264,-942,-51, 1020.47, 27.89, 55.2
5361,-11,-16,1034,-1050,-3990,560,265,-954,-52, 1020.59, 27.92, 55.2
5411,-9,-17,1030,-980,-3920,560,276,-948,-52, 1020.54, 27.90, 55.2
5461,-9,-16,1033,-1050,-4060,560,267,-954,-57, 1020.53, 27.90, 55.2
5511,-10,-17,1031,-980,-3920,560,276,-949,-54, 1020.49, 27.94, 55.2
5561,-10,-17,1034,-1050,-3990,560,276,-949,-52, 1020.56, 27.94, 55.2
5611,-11,-18,1029,-1050,-3920,560,271,-951,-57, 1020.54, 27.98, 55.2
5661,-10,-18,1032,-1050,-3920,560,273,-943,-51, 1020.47, 27.92, 55.2
5711,-8,-17,1033,-1050,-3990,560,276,-957,-51, 1020.52, 27.92, 55.2
5761,-11,-14,1032,-980,-4060,560,268,-948,-46, 1020.50, 27.92, 55.2
5811,-11,-16,1033,-1050,-3920,560,271,-952,-48, 1020.48, 27.92, 55.2
5860,-11,-15,1032,-980,-3990,560,265,-954,-48, 1020.47, 27.90, 55.1
5910,-11,-16,1033,-1050,-3990,560,274,-951,-57, 1020.52, 27.92, 55.1
5960,-9,-19,1033,-980,-3920,560,274,-946,-51, 1020.49, 27.92, 55.1
6010,-10,-16,1032,-980,-3920,560,274,-954,-43, 1020.49, 27.94, 55.1
6060,-12,-17,1034,-1050,-3920,560,277,-954,-49, 1020.54, 27.94, 55.1
6109,-9,-17,1033,-1050,-3990,490,274,-951,-45, 1020.53, 27.96, 55.2
6159,-10,-15,1033,-1050,-3990,560,268,-955,-52, 1020.57, 27.96, 55.2
6209,-9,-17,1034,-1050,-3990,490,267,-948,-52, 1020.53, 27.96, 55.2
6259,-10,-17,1032,-980,-3920,490,268,-955,-43, 1020.54, 27.94, 55.2
6309,-11,-16,1034,-980,-3990,490,271,-949,-51, 1020.51, 27.94, 55.1
6359,-12,-17,1031,-980,-3850,560,270,-951,-48, 1020.54, 27.96, 55.2
6409,-12,-16,1031,-980,-3990,490,273,-948,-51, 1020.57, 27.96, 55.2
6459,-11,-18,1031,-980,-3920,560,274,-955,-52, 1020.56, 27.96, 55.2
6509,-9,-16,1033,-980,-3920,560,274,-952,-49, 1020.55, 27.96, 55.1
6559,-11,-17,1031,-1050,-3920,560,270,-942,-42, 1020.51, 27.96, 55.1
6609,-11,-16,1034,-980,-3990,560,268,-952,-52, 1020.53, 27.96, 55.2
6659,-10,-18,1032,-980,-3920,490,274,-943,-51, 1020.54, 27.94, 55.2
6709,-12,-16,1034,-1050,-3920,560,267,-943,-46, 1020.53, 27.94, 55.2
6758,-10,-15,1030,-980,-3920,560,271,-952,-48, 1020.56, 27.94, 55.1
6807,-11,-16,1033,-1050,-3990,560,273,-948,-45, 1020.51, 27.98, 55.1
6857,-10,-15,1032,-1050,-3990,490,267,-951,-52, 1020.52, 27.98, 55.2
6907,-9,-17,1035,-980,-3990,560,265,-948,-55, 1020.57, 27.94, 55.2
6957,-10,-18,1034,-1050,-3990,490,267,-949,-49, 1020.48, 27.94, 55.1
7007,-10,-17,1032,-980,-3920,560,270,-949,-52, 1020.48, 27.94, 55.2
7057,-11,-16,1034,-980,-3990,560,273,-948,-52, 1020.53, 27.94, 55.2
7107,-13,-20,1032,-980,-3920,560,267,-954,-43, 1020.57, 27.94, 55.1
7157,-12,-17,1032,-980,-3990,560,276,-955,-52, 1020.53, 27.94, 55.1
7207,-10,-16,1032,-980,-3990,490,268,-948,-49, 1020.50, 27.94, 55.2
7257,-12,-16,1034,-1050,-3990,560,271,-957,-52, 1020.46, 27.94, 55.1
7307,-11,-16,1030,-980,-3920,560,271,-954,-51, 1020.55, 27.94, 55.1
7357,-11,-16,1035,-980,-3990,560,264,-943,-54, 1020.49, 27.94, 55.1
7407,-11,-17,1032,-980,-3920,490,268,-946,-46, 1020.54, 27.94, 55.1
7457,-10,-17,1035,-980,-3990,560,267,-945,-49, 1020.53, 27.94, 55.1
7507,-11,-17,1031,-980,-3920,560,274,-952,-55, 1020.48, 27.92, 55.1
7557,-10,-19,1035,-980,-3990,560,267,-940,-55, 1020.56, 27.94, 55.1
7607,-8,-17,1030,-980,-3920,560,270,-946,-57, 1020.55, 27.94, 55.1
7657,-12,-16,1034,-980,-3990,560,274,-951,-55, 1020.55, 27.92, 55.1
7707,-10,-17,1031,-980,-3920,560,274,-948,-43, 1020.52, 27.96, 55.1
7757,-10,-17,1033,-980,-3920,560,267,-946,-51, 1020.47, 27.96, 55.1
7807,-10,-14,1033,-980,-3990,560,274,-951,-52, 1020.49, 27.94, 55.1
7857,-10,-15,1032,-980,-3990,560,274,-951,-60, 1020.57, 27.94, 55.1
7907,-12,-17,1032,-980,-3920,560,267,-952,-51, 1020.53, 27.92, 55.1
7957,-10,-18,1033,-980,-3920,560,273,-946,-52, 1020.55, 27.90, 55.1
8007,-12,-16,1034,-980,-3920,560,276,-954,-49, 1020.53, 27.90, 55.1
8057,-11,-17,1031,-1050,-3920,560,276,-948,-46, 1020.51, 27.94, 55.1
8107,-10,-17,1034,-980,-3990,560,274,-951,-57, 1020.53, 27.94, 55.1
8157,-13,-16,1031,-980,-3920,560,276,-949,-49, 1020.49, 27.96, 55.1
8207,-10,-16,1034,-980,-3990,560,276,-948,-54, 1020.53, 27.98, 55.1
8257,-11,-15,1031,-980,-3920,560,279,-949,-57, 1020.52, 27.98, 55.1
8307,-10,-17,1034,-1050,-3920,560,282,-942,-67, 1020.53, 27.98, 55.1
8357,-9,-17,1030,-1050,-3920,560,295,-946,-76, 1020.53, 27.98, 55.1
8407,-11,-17,1035,-1050,-3920,560,361,-906,-84, 1020.50, 27.94, 55.1
8457,-12,-19,1031,-980,-3920,560,540,-831,-61, 1020.51, 27.98, 55.1
8506,-9,-17,1033,-1050,-3990,560,1224,-129,1671, 1020.50, 27.98, 55.1
8556,-10,-17,1033,-980,-3990,560,-2238,481,268, 1020.50, 27.92, 55.1
8606,-12,-17,1033,-1050,-3990,560,-13,135,-43, 1020.53, 27.92, 55.2
8656,-9,-17,1031,-1050,-3920,560,67,-711,-105, 1020.54, 27.96, 55.1
8706,-11,-15,1035,-1050,-3920,560,193,-882,-112, 1020.56, 27.94, 55.1
8756,-11,-17,1032,-980,-3920,560,204,-892,-93, 1020.52, 27.94, 55.1
8806,-11,-16,1032,-980,-3990,560,196,-885,-105, 1020.50, 27.94, 55.1
8856,-11,-17,1033,-1050,-3920,560,129,-783,-126, 1020.47, 27.92, 55.1
8906,-9,-15,1033,-1050,-3920,560,25,-256,-118, 1020.54, 27.92, 55.1
8956,-12,-18,1033,-1050,-3990,560,-2724,5737,-1150, 1020.49, 27.94, 55.1
9006,-8,-17,1031,-1050,-3920,560,4410,-2848,6073, 1020.53, 27.94, 55.1
9056,-13,-15,1036,-1050,-3850,560,559,-927,-195, 1020.51, 27.92, 55.1
9106,-10,-15,1031,-1050,-3920,560,280,-904,-103, 1020.54, 27.94, 55.1
9156,-11,-16,1034,-1050,-3990,560,255,-907,-85, 1020.55, 27.94, 55.1
9206,-11,-19,1032,-1050,-3920,560,249,-901,-81, 1020.56, 27.94, 55.1
9256,-11,-16,1034,-1050,-3990,560,238,-906,-82, 1020.55, 27.94, 55.1
9306,-12,-18,1029,-1050,-3850,560,240,-912,-79, 1020.50, 27.96, 55.2
9356,-10,-16,1035,-1050,-3920,560,235,-901,-85, 1020.56, 27.96, 55.2
9406,-10,-17,1031,-980,-3920,630,240,-909,-78, 1020.55, 27.96, 55.1
9456,-10,-18,1037,-1050,-3990,560,241,-904,-81, 1020.54, 27.94, 55.1
9506,-11,-16,1031,-980,-3920,560,240,-895,-72, 1020.45, 27.94, 55.0
9556,-10,-16,1034,-1050,-3990,560,241,-909,-73, 1020.52, 27.94, 55.0
9606,-11,-16,1031,-1050,-3990,560,235,-904,-70, 1020.47, 27.96, 55.0
9656,-12,-19,1037,-1050,-3920,560,240,-897,-78, 1020.59, 27.96, 55.0
9706,-11,-17,1031,-1050,-3920,560,247,-901,-78, 1020.57, 27.92, 55.0
9756,-11,-16,1034,-1050,-3850,560,235,-901,-75, 1020.45, 27.92, 55.0
9806,-14,-19,1032,-1050,-3920,560,241,-903,-72, 1020.53, 27.94, 55.1
9856,-11,-16,1034,-1050,-3990,560,240,-904,-73, 1020.53, 27.99, 55.1
9906,-12,-19,1033,-1050,-3990,560,243,-906,-82, 1020.57, 27.99, 55.1
9956,-11,-17,1033,-1050,-3920,630,243,-903,-76, 1020.57, 27.96, 55.0
10006,-10,-18,1033,-1050,-3920,560,241,-904,-78, 1020.56, 27.96, 55.0
10056,-11,-17,1033,-1050,-3850,560,240,-903,-72, 1020.55, 27.96, 55.0
10106,-9,-16,1034,-1050,-3920,630,235,-900,-75, 1020.52, 27.98, 55.0
10156,-11,-18,1033,-1050,-3850,560,240,-906,-76, 1020.50, 27.98, 55.0
10206,-10,-17,1034,-1050,-3990,560,243,-904,-72, 1020.51, 27.98, 55.0
10256,-8,-15,1031,-1050,-3920,560,243,-903,-79, 1020.53, 27.90, 55.0
10306,-13,-18,1035,-1050,-3920,630,232,-901,-76, 1020.51, 27.90, 55.0
10356,-10,-15,1032,-1050,-3920,630,241,-909,-76, 1020.47, 28.01, 55.0
10406,-13,-15,1033,-1050,-3920,630,232,-903,-78, 1020.48, 28.01, 55.1
10456,-9,-20,1031,-1050,-3850,560,241,-903,-76, 1020.50, 27.96, 55.0
10506,-12,-17,1033,-1050,-3990,560,238,-900,-75, 1020.52, 27.96, 55.0
10556,-11,-17,1029,-1050,-3990,560,244,-906,-81, 1020.50, 27.96, 55.0
10606,-13,-16,1033,-1050,-3920,630,237,-906,-76, 1020.58, 27.94, 55.0
10656,-10,-16,1033,-1050,-3850,560,238,-906,-75, 1020.57, 27.94, 55.0
10705,-11,-16,1034,-1050,-3850,630,235,-903,-76, 1020.58, 27.99, 55.0
10755,-10,-16,1034,-1050,-3920,630,243,-904,-76, 1020.54, 27.94, 55.0
10805,-12,-17,1034,-1050,-3920,630,241,-913,-73, 1020.55, 27.94, 55.0
10855,-10,-18,1034,-1120,-3990,630,241,-903,-75, 1020.51, 27.96, 55.0
10905,-10,-17,1034,-1050,-3920,630,235,-907,-70, 1020.55, 27.96, 55.0
10955,-10,-16,1033,-1050,-3920,630,241,-904,-78, 1020.57, 27.94, 55.0
11005,-10,-18,1031,-1050,-3850,630,238,-906,-75, 1020.55, 27.96, 55.0
11055,-12,-16,1033,-1120,-3920,630,243,-906,-72, 1020.53, 27.96, 55.0
11105,-11,-16,1030,-1050,-3850,630,243,-903,-76, 1020.51, 27.94, 55.1
11155,-11,-16,1035,-1050,-3990,560,238,-901,-75, 1020.52, 27.94, 55.1
11205,-11,-15,1033,-1050,-3920,630,241,-906,-69, 1020.55, 27.94, 55.0
11255,-10,-18,1035,-1050,-3920,630,241,-904,-79, 1020.48, 27.98, 55.0
11305,-10,-18,1029,-1050,-3920,630,235,-904,-73, 1020.50, 27.98, 55.0
11355,-11,-18,1036,-1050,-3920,630,240,-910,-76, 1020.49, 27.96, 55.0
11404,-10,-17,1030,-1050,-3850,630,229,-903,-70, 1020.55, 27.96, 55.0
11454,-11,-17,1036,-1050,-3920,630,238,-900,-75, 1020.52, 27.96, 55.1
11504,-10,-17,1029,-1050,-3850,630,243,-898,-75, 1020.51, 27.94, 55.1
11554,-11,-16,1037,-1050,-3920,630,237,-910,-78, 1020.52, 27.94, 54.9
11604,-9,-15,1030,-1120,-3850,630,231,-904,-78, 1020.58, 27.96, 55.0
11654,-12,-19,1035,-1050,-3920,630,237,-904,-72, 1020.63, 28.01, 55.0
11704,-11,-18,1030,-1050,-3850,630,240,-907,-81, 1020.55, 28.01, 54.9
11754,-10,-18,1035,-1120,-3850,630,234,-910,-78, 1020.57, 27.99, 54.9
11804,-10,-18,1031,-1050,-3920,630,232,-907,-78, 1020.50, 27.99, 55.0
11854,-10,-17,1033,-1120,-3920,630,241,-903,-79, 1020.54, 27.96, 54.9
11904,-12,-18,1034,-1050,-3920,630,238,-903,-70, 1020.51, 27.96, 54.9
11954,-12,-17,1032,-1050,-3850,630,237,-900,-73, 1020.54, 27.96, 54.9
12004,-12,-16,1034,-1050,-3850,630,234,-903,-76, 1020.57, 27.99, 54.9
12054,-10,-18,1033,-1120,-3850,630,238,-901,-75, 1020.51, 27.99, 54.9
12104,-10,-16,1035,-1120,-3920,630,238,-907,-81, 1020.58, 27.96, 54.9
12154,-8,-16,1033,-1050,-3850,630,234,-904,-75, 1020.54, 27.94, 54.9
12204,-11,-20,1035,-1120,-3920,630,234,-898,-78, 1020.56, 27.94, 55.0
12254,-12,-17,1030,-1050,-3850,630,238,-904,-81, 1020.60, 27.96, 54.9
12303,-11,-17,1035,-1120,-3920,630,237,-904,-76, 1020.52, 27.96, 54.9
12353,-10,-17,1032,-1120,-3850,630,244,-898,-75, 1020.52, 27.96, 54.9
12403,-12,-16,1034,-1120,-3850,630,237,-906,-76, 1020.47, 27.94, 54.9
12453,-9,-18,1032,-1120,-3850,630,232,-909,-75, 1020.49, 27.94, 54.9
12503,-11,-16,1034,-1120,-3920,630,243,-907,-75, 1020.53, 27.96, 54.9
12553,-10,-17,1031,-1120,-3920,630,234,-903,-69, 1020.53, 27.94, 54.9
12603,-11,-18,1035,-1120,-3920,630,244,-897,-75, 1020.54, 27.94, 54.9
12653,-10,-17,1032,-1050,-3850,630,234,-907,-78, 1020.51, 27.98, 54.9
12703,-11,-16,1035,-1120,-3850,630,249,-903,-82, 1020.48, 27.98, 54.8
12753,-9,-15,1033,-1120,-3850,630,247,-898,-73, 1020.54, 27.96, 54.8
12803,-11,-17,1033,-1050,-3850,630,235,-904,-73, 1020.50, 27.96, 54.8
12853,-10,-17,1032,-1120,-3920,630,240,-903,-82, 1020.51, 27.96, 54.9
12903,-9,-17,1034,-1120,-3920,630,240,-910,-75, 1020.51, 27.98, 54.9
12953,-11,-15,1035,-1120,-3990,630,237,-900,-79, 1020.56, 27.98, 54.9
13003,-11,-17,1033,-1120,-3850,630,241,-901,-75, 1020.56, 27.96, 54.9
13053,-12,-16,1035,-1120,-3850,630,249,-901,-75, 1020.49, 27.99, 54.9
13103,-10,-18,1030,-1120,-3780,630,246,-904,-85, 1020.50, 27.99, 55.0
13153,-10,-17,1035,-1050,-3920,630,267,-897,-88, 1020.56, 27.98, 55.0
13203,-11,-18,1031,-1050,-3850,630,274,-889,-99, 1020.43, 27.98, 54.8
13253,-11,-16,1036,-1120,-3920,630,417,-817,-87, 1020.49, 27.99, 54.9
13303,-12,-17,1029,-1050,-3850,630,753,-300,732, 1020.50, 28.01, 54.9
13353,-11,-16,1034,-1050,-3920,630,-756,-207,454, 1020.60, 28.01, 54.9
13403,-11,-17,1031,-1120,-3850,630,129,-466,-268, 1020.52, 27.96, 54.9
13453,-12,-18,1035,-1120,-3920,630,126,-747,-121, 1020.51, 27.99, 54.9
13503,-10,-18,1031,-1120,-3920,630,178,-871,-112, 1020.55, 27.99, 54.9
13553,-12,-17,1037,-1120,-3990,630,208,-879,-103, 1020.53, 27.99, 54.9
13603,-9,-17,1030,-1050,-3920,630,211,-892,-108, 1020.54, 27.99, 54.9
13653,-14,-16,1035,-1120,-3850,630,211,-886,-99, 1020.49, 28.01, 54.9
13703,-8,-16,1032,-1120,-3850,630,204,-879,-112, 1020.50, 27.99, 54.9
13753,-10,-16,1034,-1050,-3850,630,165,-852,-118, 1020.54, 27.99, 54.8
13803,-11,-15,1034,-1120,-3850,630,85,-792,-127, 1020.52, 27.99, 54.8
13853,-11,-16,1035,-1120,-3920,630,-295,-141,153, 1020.56, 27.99, 54.9
13903,-10,-17,1034,-1120,-3920,630,-408,1278,624, 1020.54, 27.99, 54.9
13953,-10,-17,1032,-1050,-3850,630,670,-1072,2497, 1020.47, 27.96, 54.9
14003,-11,-17,1033,-1120,-3920,630,783,-939,-18, 1020.48, 27.96, 54.9
14053,-12,-18,1030,-1120,-3850,630,400,-901,-118, 1020.56, 27.99, 54.9
14103,-11,-17,1035,-1050,-3920,630,277,-903,-100, 1020.52, 27.99, 54.8
14153,-11,-16,1033,-1120,-3920,630,250,-909,-87, 1020.51, 27.99, 54.9
14203,-11,-17,1033,-1120,-3990,630,244,-912,-91, 1020.54, 27.94, 54.9
14253,-8,-16,1032,-1120,-3920,630,247,-909,-82, 1020.53, 27.94, 54.8
14303,-10,-17,1036,-1120,-3920,630,238,-904,-82, 1020.51, 27.98, 54.8
14353,-12,-17,1033,-1120,-3850,630,241,-901,-78, 1020.51, 27.99, 54.8
14403,-11,-17,1034,-1120,-3920,630,238,-907,-78, 1020.50, 27.99, 54.9
14453,-10,-18,1031,-1120,-3920,630,240,-900,-69, 1020.51, 28.01, 54.9
14503,-12,-17,1035,-1120,-3920,630,241,-900,-81, 1020.48, 28.01, 54.9
14553,-9,-17,1033,-1120,-3920,630,237,-907,-81, 1020.50, 27.96, 54.8
14603,-10,-17,1036,-1120,-3920,630,238,-903,-78, 1020.51, 27.99, 54.8
14653,-9,-18,1031,-1120,-3850,630,241,-907,-79, 1020.54, 27.99, 54.8
14703,-11,-16,1035,-1050,-3850,630,234,-910,-87, 1020.53, 28.03, 54.8
14753,-11,-17,1031,-1120,-3920,630,243,-910,-81, 1020.55, 28.03, 54.9
14803,-13,-17,1033,-1120,-3920,630,237,-906,-73, 1020.48, 28.03, 54.8
14853,-11,-17,1033,-1050,-3920,630,246,-904,-75, 1020.57, 27.99, 54.8
14903,-10,-16,1034,-1120,-3920,630,238,-906,-73, 1020.51, 27.99, 54.8
14953,-11,-16,1032,-1120,-3920,630,243,-910,-76, 1020.47, 28.03, 54.8
15003,-10,-17,1035,-1120,-3850,630,241,-912,-76, 1020.53, 28.03, 54.8
15053,-12,-16,1032,-1120,-3920,700,243,-912,-81, 1020.52, 27.99, 54.8
15103,-9,-17,1033,-1120,-3920,630,241,-907,-78, 1020.54, 28.01, 54.8
15153,-10,-17,1034,-1120,-3850,630,243,-906,-76, 1020.58, 28.01, 54.8
15203,-12,-17,1032,-1120,-3920,630,243,-894,-76, 1020.60, 27.99, 54.8
15253,-11,-17,1031,-1120,-3920,630,238,-912,-79, 1020.53, 27.99, 54.8
15303,-9,-17,1033,-1120,-3850,630,243,-906,-75, 1020.52, 27.99, 54.8
15353,-10,-18,1036,-1120,-3850,630,244,-907,-76, 1020.52, 27.99, 54.8
15403,-10,-17,1031,-1120,-3850,630,240,-903,-75, 1020.50, 27.99, 54.8
15453,-9,-17,1035,-1120,-3990,700,237,-903,-76, 1020.54, 28.03, 54.7
15503,-9,-17,1033,-1120,-3850,630,238,-906,-69, 1020.50, 28.01, 54.7
15553,-11,-17,1036,-1120,-3920,700,241,-907,-84, 1020.50, 28.01, 54.7
15603,-10,-19,1030,-1120,-3850,630,240,-904,-75, 1020.52, 27.98, 54.7
15653,-11,-18,1034,-1120,-3920,630,240,-909,-75, 1020.51, 27.98, 54.8
15703,-9,-17,1034,-1050,-3920,700,232,-904,-79, 1020.51, 27.99, 54.8
15753,-9,-16,1035,-1120,-3920,630,240,-907,-76, 1020.48, 28.01, 54.8
15803,-11,-16,1033,-1120,-3920,700,237,-907,-75, 1020.56, 28.01, 54.8
15853,-10,-16,1032,-1120,-3850,700,240,-901,-73, 1020.57, 27.99, 54.8
15903,-11,-16,1035,-1120,-3920,630,238,-904,-76, 1020.51, 27.99, 54.7
15953,-9,-16,1032,-1120,-3920,630,243,-909,-81, 1020.49, 28.01, 54.7
16003,-11,-17,1034,-1120,-3850,700,241,-904,-69, 1020.49, 28.03, 54.7
16053,-10,-18,1033,-1120,-3920,630,244,-907,-76, 1020.55, 28.03, 54.7
16103,-12,-17,1031,-1120,-3920,700,250,-912,-82, 1020.54, 28.03, 54.7
16153,-12,-19,1034,-1120,-3920,630,244,-909,-75, 1020.50, 28.03, 54.7
16203,-8,-16,1034,-1120,-3920,630,244,-904,-82, 1020.47, 28.03, 54.7
16253,-11,-18,1035,-1120,-3850,630,243,-904,-79, 1020.54, 28.01, 54.7
16303,-10,-17,1034,-1120,-3990,630,238,-907,-70, 1020.58, 28.01, 54.7
16353,-8,-17,1031,-1190,-3850,700,241,-903,-79, 1020.55, 27.99, 54.7
16403,-10,-18,1034,-1120,-3920,700,246,-897,-75, 1020.55, 27.99, 54.7
16453,-10,-17,1033,-1120,-3850,630,237,-909,-73, 1020.58, 28.01, 54.7
16503,-12,-15,1033,-1120,-3920,700,234,-906,-72, 1020.56, 28.01, 54.7
16553,-10,-17,1032,-1120,-3920,700,238,-904,-73, 1020.47, 28.01, 54.7
16603,-11,-17,1035,-1120,-3920,700,235,-903,-78, 1020.49, 28.01, 54.7
16653,-10,-16,1032,-1120,-3920,700,237,-909,-73, 1020.57, 28.03, 54.7
16703,-9,-17,1034,-1190,-3920,700,244,-901,-78, 1020.59, 28.03, 54.7
16753,-12,-16,1032,-1190,-3920,700,240,-910,-76, 1020.55, 28.03, 54.7
16803,-13,-18,1034,-1120,-3920,700,240,-898,-81, 1020.58, 28.03, 54.7
16853,-9,-16,1033,-1120,-3920,630,237,-898,-75, 1020.52, 27.99, 54.7
16903,-11,-16,1033,-1120,-3850,700,238,-900,-73, 1020.52, 27.99, 54.7
16953,-11,-15,1032,-1190,-3920,630,240,-903,-82, 1020.54, 27.99, 54.7
17003,-11,-17,1033,-1120,-3850,700,243,-903,-78, 1020.53, 28.03, 54.7
17053,-10,-17,1033,-1120,-3920,700,241,-900,-79, 1020.53, 28.03, 54.7
17103,-11,-17,1032,-1120,-3850,700,244,-904,-78, 1020.49, 28.03, 54.7
17153,-10,-17,1035,-1120,-3920,700,237,-901,-66, 1020.53, 28.03, 54.7
17203,-10,-17,1033,-1120,-3920,700,244,-906,-75, 1020.49, 28.03, 54.7
17253,-11,-19,1036,-1120,-3920,700,240,-900,-78, 1020.51, 28.05, 54.7
17303,-11,-18,1033,-1120,-3850,700,237,-909,-78, 1020.50, 28.05, 54.8
17353,-12,-17,1034,-1120,-3920,630,241,-907,-75, 1020.53, 28.03, 54.7
17403,-11,-17,1032,-1120,-3920,700,243,-904,-78, 1020.51, 28.07, 54.7
17453,-11,-17,1034,-1120,-3920,700,237,-909,-73, 1020.56, 28.07, 54.6
17503,-16,-21,1033,-2870,-280,700,234,-903,-72, 1020.58, 28.05, 54.7
17553,-21,-20,1039,-1470,-1890,630,243,-910,-75, 1020.52, 28.03, 54.7
17603,-2,-15,1021,1120,-9030,700,238,-909,-72, 1020.56, 28.03, 54.6
17653,-11,-17,1034,-770,-5460,700,235,-901,-69, 1020.52, 28.03, 54.6
17703,-12,-20,1031,-1050,-4410,630,238,-913,-78, 1020.53, 28.03, 54.7
17753,-12,-18,1034,-1120,-4200,630,241,-906,-70, 1020.49, 28.03, 54.7
17803,-11,-17,1032,-1050,-4060,630,234,-904,-78, 1020.49, 28.05, 54.7
17853,-10,-17,1031,-1050,-4060,630,238,-910,-78, 1020.51, 28.05, 54.7
17903,-10,-15,1030,-1120,-4060,630,237,-903,-73, 1020.53, 28.03, 54.7
17953,-8,-15,1033,-1050,-4480,630,243,-903,-73, 1020.51, 28.03, 54.7
18003,-12,-16,1029,-910,-4550,560,240,-903,-75, 1020.55, 28.05, 54.7
18053,-9,-17,1031,-1470,-5600,630,235,-912,-72, 1020.61, 28.08, 54.7
18103,-9,-18,1029,-1540,-3850,560,234,-906,-75, 1020.55, 28.08, 54.7
18153,19,-11,1009,-1330,-1050,490,238,-906,-75, 1020.51, 27.99, 54.7
18203,14,-35,1033,-2170,-3010,1820,238,-910,-76, 1020.48, 27.99, 54.7
18253,-32,-29,1040,-3570,6650,-11760,234,-910,-81, 1020.50, 28.03, 54.7
18303,-21,-22,1022,-280,-980,560,243,-906,-84, 1020.47, 28.07, 54.7
18353,-29,-20,1032,1470,-1680,630,235,-909,-70, 1020.53, 28.07, 54.8
18403,-25,-17,1031,1050,-3780,560,240,-912,-78, 1020.54, 28.01, 54.8
18453,-30,-15,1039,350,-4900,630,241,-907,-79, 1020.46, 28.01, 54.7
18503,-38,-16,1035,-630,-4410,560,234,-916,-78, 1020.52, 28.05, 54.7
18553,-29,-16,1036,-630,-5040,560,241,-904,-84, 1020.50, 28.03, 54.7
18603,-29,-14,1036,-700,-4830,560,241,-918,-78, 1020.49, 28.03, 54.8
18653,-29,-15,1033,-770,-4550,560,237,-910,-79, 1020.52, 27.99, 54.7
18703,-26,-13,1034,-490,-5600,560,243,-906,-82, 1020.55, 28.07, 54.7
18753,-28,-15,1032,-840,-4270,560,237,-913,-81, 1020.56, 28.07, 54.8
18803,-25,-15,1028,-910,-3920,560,237,-907,-81, 1020.48, 28.05, 54.8
18853,-26,-13,1034,-1330,-2940,560,240,-909,-79, 1020.53, 28.05, 54.8
18903,-27,-15,1035,-1050,-4130,560,243,-901,-76, 1020.51, 28.05, 54.8
18953,-26,-14,1032,-1120,-3850,560,243,-915,-79, 1020.50, 28.01, 54.8
19003,-27,-13,1033,-980,-3920,560,235,-903,-87, 1020.53, 28.01, 54.9
19053,-27,-14,1033,-770,-4760,560,234,-901,-78, 1020.52, 28.03, 54.9
19103,-28,-13,1033,-1120,-3990,560,241,-910,-82, 1020.46, 28.03, 54.8
19153,-26,-13,1033,-840,-4410,490,247,-907,-81, 1020.47, 28.05, 54.9
19203,-24,-16,1024,-210,-5880,560,240,-904,-81, 1020.55, 28.03, 54.9
19253,-39,-25,1037,-840,-4130,560,244,-907,-82, 1020.53, 28.03, 54.9
19303,-19,-10,1032,-1260,-3150,630,235,-910,-76, 1020.50, 28.03, 54.9
19353,-26,-11,1037,-1190,-3570,210,240,-910,-79, 1020.53, 28.03, 54.9
19403,17,-11,1075,-3290,-5460,-1890,243,-909,-78, 1020.54, 28.03, 54.9
19453,0,-8,1206,18970,4410,21140,241,-907,-82, 1020.51, 28.01, 54.9
19503,7,-20,1187,-8820,-17430,7420,244,-910,-78, 1020.51, 28.01, 55.0
19553,-23,-50,1267,-11760,-15960,-15330,232,-906,-75, 1020.54, 28.05, 55.0
19603,-31,-68,1155,-26180,-6300,6230,231,-886,-67, 1020.51, 28.03, 55.0
19653,-12,-78,1186,-22120,5390,560,238,-889,-75, 1020.55, 28.03, 54.9
19703,-14,-87,1122,-26880,8820,8680,235,-888,-69, 1020.54, 28.05, 54.9
19753,-14,-108,1043,-29680,10430,8540,225,-898,-73, 1020.53, 28.05, 54.9
19803,-76,-111,959,-27090,22120,9380,220,-891,-79, 1020.49, 28.03, 54.9
19853,-90,-131,961,-20860,19810,12950,228,-894,-81, 1020.48, 27.99, 54.9
19903,-111,-136,796,-23310,7350,6160,223,-903,-90, 1020.56, 27.99, 54.9
19953,-80,-144,884,-12040,14770,6930,226,-897,-93, 1020.50, 28.01, 54.9
20003,-141,-149,803,-10360,-3920,2660,226,-900,-93, 1020.57, 28.01, 54.9
20053,-117,-146,890,-3010,13510,2030,226,-900,-97, 1020.55, 28.01, 54.9
20103,-115,-145,787,-3220,3850,1540,228,-901,-100, 1020.49, 27.94, 54.9
20153,-108,-151,845,5390,-70,-70,232,-903,-96, 1020.54, 27.94, 54.9
20203,-129,-142,866,7420,-9240,-3290,229,-900,-99, 1020.50, 27.99, 54.9
20253,-116,-144,926,7560,-9520,350,225,-907,-97, 1020.48, 27.99, 54.8
20303,-107,-143,893,5810,-12110,770,231,-901,-90, 1020.51, 27.98, 54.8
20353,-96,-139,923,8820,-13230,-420,222,-903,-97, 1020.54, 28.01, 54.8
20403,-125,-127,929,10080,-12250,2730,225,-903,-82, 1020.52, 28.01, 54.8
20453,-83,-112,979,14000,-13020,70,225,-900,-90, 1020.47, 27.99, 54.8
20503,-107,-126,1025,13720,-14630,-2240,235,-891,-82, 1020.49, 27.99, 54.9
20553,-65,-128,1057,7490,-14280,-5460,232,-897,-79, 1020.52, 27.96, 54.9
20603,-61,-97,1031,5600,-22470,-1890,235,-898,-78, 1020.45, 28.03, 54.9
20653,11,-98,1075,5810,-19460,-9450,228,-888,-84, 1020.48, 28.03, 54.9
20703,9,-95,1081,2030,-24360,-8890,231,-894,-76, 1020.52, 28.01, 54.9
20753,-52,-76,1021,4270,-15330,2310,234,-891,-70, 1020.50, 28.03, 54.9
20803,6,-99,1130,9170,-10710,1820,238,-895,-72, 1020.49, 28.03, 54.9
20853,9,-87,1090,7280,-11970,-1400,238,-892,-70, 1020.49, 27.98, 54.9
20903,-34,-71,1154,10360,-13790,-3430,235,-895,-70, 1020.58, 27.98, 54.8
20953,8,-73,1164,7490,-4270,-2730,238,-891,-79, 1020.56, 28.03, 54.9
21003,-10,-62,1117,3850,-10010,-1960,241,-897,-66, 1020.54, 28.03, 54.9
21053,-3,-60,1026,2240,-8610,-6510,234,-903,-72, 1020.53, 28.03, 54.9
21103,-24,-44,972,3150,840,1890,246,-901,-66, 1020.50, 28.03, 54.9
21153,-9,-41,1045,5740,10500,7490,243,-909,-72, 1020.53, 28.03, 54.9
21203,-37,-38,1047,6930,12740,6860,243,-906,-67, 1020.51, 28.05, 54.9
21253,8,-48,1226,5250,-8470,3710,240,-906,-70, 1020.52, 28.01, 54.9
21303,-27,-5,1059,17990,5320,5040,240,-907,-76, 1020.47, 28.01, 54.9
21353,-36,-19,1032,2450,-420,3640,246,-903,-75, 1020.53, 28.03, 54.9
21403,-28,-13,1029,1680,-3220,560,246,-909,-79, 1020.55, 28.03, 54.8
21453,-27,-13,1036,-1540,-2660,560,241,-906,-81, 1020.59, 28.05, 54.9
21503,-32,-15,1030,-1260,-4130,560,244,-904,-78, 1020.51, 28.01, 54.9
21553,-31,-15,1038,-1190,-2730,560,244,-904,-79, 1020.50, 28.01, 54.8
21603,-31,-15,1034,-560,-5180,560,249,-910,-81, 1020.53, 28.01, 54.8
21653,-37,-15,1055,-1400,-4340,-630,247,-906,-75, 1020.50, 28.01, 54.9
21703,-64,-48,1414,5740,-1610,-9870,241,-907,-78, 1020.51, 28.05, 54.9
21753,-47,-35,1400,-9170,-9870,-1330,244,-903,-73, 1020.58, 28.07, 54.9
21803,-39,-52,1253,-20930,3640,-1050,238,-903,-76, 1020.54, 28.07, 54.9
21853,-63,-64,1202,-25200,17080,630,241,-904,-79, 1020.57, 28.05, 54.9
21903,-66,-57,1117,-26530,13440,4620,234,-903,-81, 1020.55, 28.05, 54.9
21953,-80,-73,1006,-31150,9590,3710,231,-897,-82, 1020.50, 28.05, 54.9
22003,-61,-105,900,-26320,10780,2170,228,-897,-82, 1020.46, 28.01, 54.9
22053,-51,-106,832,-24360,5740,-980,220,-894,-82, 1020.50, 28.01, 54.9
22103,-103,-136,838,-19880,6020,-1120,217,-895,-84, 1020.53, 27.98, 54.8
22153,-109,-147,812,-11690,15820,4480,222,-900,-85, 1020.50, 28.01, 54.8
22203,-101,-146,768,-8540,4060,2520,220,-895,-96, 1020.51, 28.01, 54.9
22253,-59,-158,811,1610,8470,2100,219,-900,-100, 1020.43, 27.99, 54.9
22303,-147,-144,742,2520,-70,4620,222,-909,-97, 1020.48, 27.99, 54.8
22353,-123,-136,904,13510,-770,2380,223,-900,-100, 1020.42, 28.01, 54.8
22403,-98,-121,890,7280,-15750,-2310,223,-898,-91, 1020.53, 28.01, 54.8
22453,-108,-135,861,8400,-13090,-1120,222,-901,-85, 1020.54, 28.01, 54.8
22503,-74,-120,965,14910,-17430,-560,222,-895,-82, 1020.59, 28.01, 54.8
22553,-83,-92,965,15470,-16450,1750,220,-895,-84, 1020.53, 28.01, 54.8
22603,-39,-98,913,13370,-18340,-1330,219,-889,-76, 1020.52, 28.01, 54.9
22653,-100,-70,983,19600,-20160,-630,229,-900,-76, 1020.49, 28.05, 54.9
22703,-50,-68,1066,21490,-3010,-6440,235,-892,-78, 1020.50, 28.05, 54.9
22753,-88,-39,1105,17850,-18270,1890,237,-895,-70, 1020.51, 28.03, 54.8
22803,6,-53,1058,8610,-19110,-9800,235,-892,-67, 1020.54, 28.05, 54.8
22853,-43,-33,1105,9940,-21490,-3710,235,-895,-73, 1020.56, 28.05, 54.9
22903,3,-22,1190,10640,-3010,4550,238,-891,-81, 1020.54, 28.07, 54.9
22953,-7,-36,1152,3360,-15470,-2800,238,-897,-78, 1020.59, 28.07, 54.9
23003,-38,-23,1058,-770,-8120,-3570,243,-898,-72, 1020.58, 28.07, 54.9
23053,-10,-38,1049,5810,3150,1680,244,-906,-78, 1020.59, 28.10, 54.9
23103,-134,231,1708,8750,4480,-140,240,-906,-78, 1020.52, 28.10, 54.8
23153,-122,-45,1079,14420,18130,490,246,-909,-75, 1020.54, 28.05, 54.8
23203,-28,-21,1017,-420,-3990,7490,241,-907,-79, 1020.50, 28.05, 54.9
23253,-30,-14,1034,140,-2240,630,243,-912,-76, 1020.55, 28.03, 54.8
23303,-27,-15,1035,-1820,-3150,630,238,-903,-79, 1020.52, 28.08, 54.8
23353,-30,-18,1030,-1960,-3500,630,244,-913,-84, 1020.59, 28.08, 54.8
23403,-31,-16,1033,-1120,-3430,630,250,-912,-79, 1020.58, 28.03, 54.8
23453,-30,-17,1029,-1120,-4200,630,235,-909,-84, 1020.52, 28.03, 54.8
23503,-30,-17,1030,-1260,-3850,630,243,-909,-78, 1020.57, 28.07, 54.8
23553,-31,-16,1034,-1050,-4130,700,249,-909,-78, 1020.56, 28.05, 54.8
23603,-31,-16,1030,-1120,-3640,700,246,-910,-78, 1020.55, 28.05, 54.7
23653,-31,-17,1030,-1050,-3990,630,238,-904,-85, 1020.54, 28.08, 54.7
23703,-32,-17,1032,-1120,-3570,630,244,-907,-84, 1020.56, 28.08, 54.8
23753,-33,-16,1034,-1120,-3990,700,249,-909,-82, 1020.54, 28.08, 54.9
23803,-29,-16,1029,-1050,-3990,700,241,-906,-81, 1020.54, 28.08, 54.9
23853,-32,-16,1035,-1050,-3780,630,240,-907,-73, 1020.55, 28.08, 54.8
23903,-30,-16,1034,-980,-3990,630,237,-910,-87, 1020.48, 28.07, 54.8
23953,-33,-16,1034,-910,-3850,630,231,-903,-82, 1020.51, 28.08, 54.8
24003,-30,-16,1038,-560,-3710,630,247,-901,-76, 1020.56, 28.08, 54.8
24053,-18,-3,1055,-770,-4550,630,244,-909,-79, 1020.48, 28.07, 54.8
24103,17,-45,1349,-4340,-15330,-9940,249,-907,-72, 1020.57, 28.07, 54.8
24153,-69,-25,1234,-7700,-15890,8750,247,-904,-72, 1020.48, 28.05, 54.7
24203,-29,-33,1281,-10710,-10150,-6300,235,-897,-72, 1020.52, 28.07, 54.7
24253,-49,-43,1179,-26040,-28420,-9380,225,-883,-66, 1020.56, 28.07, 54.9
24303,6,-66,1150,-22260,-7420,70,228,-888,-63, 1020.48, 28.08, 54.9
24353,-10,-78,1079,-25480,3710,700,225,-886,-69, 1020.50, 28.08, 54.8
24403,-11,-73,1070,-22190,4410,-1820,219,-879,-63, 1020.53, 28.08, 54.8
24453,-14,-88,940,-25340,10780,2520,214,-885,-66, 1020.52, 28.10, 54.8
24503,12,-105,914,-20510,18970,3360,214,-889,-64, 1020.54, 28.10, 54.8
24553,-51,-125,794,-19040,6790,5530,217,-885,-73, 1020.49, 28.07, 54.8
24603,-28,-161,894,-12040,18900,6160,210,-891,-84, 1020.50, 28.07, 54.8
24653,-87,-162,723,-14980,3010,3710,217,-892,-97, 1020.49, 28.05, 54.8
24703,-95,-161,836,-1680,10920,2730,211,-891,-90, 1020.51, 28.05, 54.8
24753,-89,-159,822,-2450,2590,1680,219,-892,-88, 1020.48, 28.05, 54.7
24803,-66,-159,859,3430,-4480,-1400,214,-894,-85, 1020.50, 28.01, 54.7
24853,-63,-146,846,3850,-10220,-3640,207,-892,-85, 1020.53, 28.01, 54.8
24903,-59,-139,904,9100,-7140,-1050,207,-888,-82, 1020.48, 28.01, 54.8
24953,-77,-135,915,11060,-12040,1050,207,-888,-78, 1020.47, 28.07, 54.8
25003,-62,-114,886,14840,-17570,-1050,210,-886,-84, 1020.49, 28.07, 54.8
25053,-39,-95,1020,28070,-19040,1400,225,-883,-73, 1020.52, 28.05, 54.8
25103,-73,-63,1028,25620,-2380,7560,220,-888,-70, 1020.45, 28.07, 54.8
25153,-56,-48,1067,21140,-19180,-2590,226,-897,-63, 1020.54, 28.07, 54.8
25203,-20,-29,1076,13790,-14420,-1610,231,-891,-60, 1020.45, 28.03, 54.8
25253,17,-30,1078,11690,-26810,-7000,226,-880,-64, 1020.44, 28.03, 54.8
25303,63,-49,1095,12670,-13160,-2800,225,-879,-60, 1020.52, 28.10, 54.7
25353,24,-40,1107,11410,-18480,1890,234,-885,-58, 1020.52, 28.07, 54.7
25403,10,-22,1141,11060,-13090,-1470,232,-886,-61, 1020.54, 28.07, 54.8
25453,-16,-8,1120,2590,-280,6860,235,-888,-54, 1020.58, 28.07, 54.8
25503,14,-33,1030,-140,-1750,4760,234,-892,-69, 1020.52, 28.07, 54.7
25553,-13,-10,984,9030,-4480,210,243,-898,-66, 1020.51, 28.08, 54.8
25603,-20,21,1030,18970,2030,-3080,247,-903,-60, 1020.54, 28.07, 54.8
25653,667,-1000,1031,9030,2730,-9520,243,-903,-69, 1020.53, 28.07, 54.8
25703,27,39,1061,-1680,13580,2100,231,-901,-76, 1020.56, 28.08, 54.8
25753,-51,-27,1031,-1260,-2800,11270,243,-904,-79, 1020.52, 28.08, 54.8
25803,-30,-15,1031,-1050,-2310,700,238,-912,-81, 1020.58, 28.08, 54.7
25853,-30,-14,1033,-1190,-4060,700,238,-904,-75, 1020.58, 28.10, 54.7
25903,-29,-16,1030,-1260,-4060,700,240,-910,-82, 1020.50, 28.10, 54.8
25953,-31,-16,1036,-1190,-3640,700,243,-909,-81, 1020.51, 28.10, 54.7
26003,-31,-16,1028,-1260,-3570,700,241,-903,-78, 1020.50, 28.14, 54.7
26053,-31,-15,1035,-980,-3850,700,238,-906,-75, 1020.49, 28.14, 54.8
26103,-30,-16,1030,-980,-3990,560,241,-915,-79, 1020.53, 28.08, 54.8
26153,-30,-15,1032,-1050,-4130,-70,240,-910,-85, 1020.45, 28.08, 54.7
26203,-24,5,1034,-1190,-3850,140,235,-909,-84, 1020.50, 28.08, 54.8
26253,-50,-33,1039,-1050,-4200,-1050,235,-907,-81, 1020.52, 28.10, 54.8
26303,-50,-34,1049,-840,-4970,-1680,232,-903,-81, 1020.46, 28.10, 54.8
26353,-40,-111,1152,-1260,-7700,-1470,237,-903,-82, 1020.53, 28.07, 54.8
26403,-25,1,1291,26600,-15400,1540,237,-906,-81, 1020.50, 28.07, 54.7
26453,-3,-15,1283,-2520,-17150,4620,240,-897,-73, 1020.52, 28.10, 54.8
26503,0,-19,1245,-13090,-1610,3500,234,-886,-61, 1020.50, 28.08, 54.8
26553,-13,-28,1194,-16100,6790,12950,240,-886,-75, 1020.51, 28.08, 54.8
26603,-7,-33,1101,-21630,2100,7280,232,-886,-67, 1020.45, 28.12, 54.8
26653,-22,-44,1055,-21910,1330,2030,228,-898,-64, 1020.53, 28.12, 54.8
26703,-11,-76,1023,-23800,18900,5880,229,-886,-73, 1020.51, 28.07, 54.7
26753,-29,-89,971,-23940,14910,3220,226,-886,-76, 1020.46, 28.10, 54.7
26803,-38,-108,932,-20580,-1050,-2730,208,-891,-76, 1020.52, 28.10, 54.8
26853,-74,-114,933,-18620,10710,-560,219,-898,-84, 1020.54, 28.07, 54.8
26903,-63,-128,867,-19250,3150,1680,216,-889,-81, 1020.49, 28.07, 54.7
26953,-84,-142,859,-12320,3710,-560,216,-897,-84, 1020.48, 28.07, 54.7
27003,-82,-159,815,-11270,7210,1750,214,-901,-93, 1020.52, 28.03, 54.7
27053,-116,-159,791,-3850,-4410,-2310,210,-891,-90, 1020.50, 28.03, 54.8
27103,-111,-140,834,4900,-3780,-1120,220,-891,-85, 1020.52, 28.05, 54.8
27153,-78,-150,819,5250,-10220,350,216,-895,-87, 1020.53, 28.08, 54.8
27203,-59,-131,824,11410,-17150,-350,220,-891,-76, 1020.48, 28.08, 54.7
27253,-72,-121,956,19390,-15330,2660,222,-891,-76, 1020.42, 28.08, 54.7
27303,-36,-89,889,17010,-22610,2380,210,-891,-70, 1020.52, 28.08, 54.7
27353,-58,-73,1014,23380,-15610,1540,220,-886,-70, 1020.47, 28.07, 54.7
27403,-4,-75,932,17150,-23170,-4830,225,-885,-61, 1020.54, 28.10, 54.7
27453,-66,-48,1126,21280,-12460,-5670,225,-885,-63, 1020.53, 28.10, 54.7
27503,17,-30,1114,10150,-12180,-980,235,-886,-64, 1020.48, 28.08, 54.7
27553,35,-24,1100,9590,-14420,4200,234,-889,-63, 1020.48, 28.08, 54.8
27603,33,-34,1177,7980,-8820,6090,241,-885,-61, 1020.46, 28.08, 54.7
27653,-18,-18,1096,1680,-9660,4340,241,-888,-60, 1020.58, 28.12, 54.7
27703,-36,-17,1179,11270,-6370,3500,241,-889,-58, 1020.49, 28.12, 54.7
27753,-19,-13,1124,3990,-1260,2310,243,-894,-69, 1020.55, 28.12, 54.7
27803,21,2,1089,2170,-8540,-1960,243,-894,-64, 1020.50, 28.12, 54.8
27853,1,-8,1025,280,-2380,4900,246,-901,-67, 1020.54, 28.12, 54.7
27903,-9,3,979,6860,910,4620,240,-898,-73, 1020.55, 28.10, 54.7
27953,-99,-124,1335,12810,3150,-1750,247,-904,-78, 1020.47, 28.10, 54.7
28003,-21,-7,1048,350,33390,10710,246,-907,-82, 1020.54, 28.10, 54.6
28053,-25,10,1073,1190,2800,980,247,-915,-72, 1020.52, 28.12, 54.6
28103,-32,-20,1035,1050,1610,630,246,-904,-85, 1020.55, 28.12, 54.6
28153,-30,-15,1032,-1330,-3080,210,243,-910,-82, 1020.55, 28.12, 54.6
28203,-27,-10,1028,-1400,-3710,70,246,-909,-75, 1020.57, 28.12, 54.7
28253,-30,-14,1028,-1610,-3150,700,240,-906,-84, 1020.49, 28.10, 54.6
28303,-28,-14,1030,-1260,-3710,700,258,-907,-85, 1020.53, 28.10, 54.6
28353,-28,-14,1031,-980,-4130,700,246,-910,-78, 1020.52, 28.10, 54.7
28403,-29,-12,1035,-1260,-3780,700,250,-912,-75, 1020.54, 28.16, 54.7
28453,-29,-13,1031,-1190,-3920,700,241,-906,-78, 1020.52, 28.16, 54.6
28503,-29,-13,1033,-1260,-4060,700,244,-915,-85, 1020.54, 28.10, 54.7
28553,-29,-13,1034,-1680,-4060,700,252,-907,-79, 1020.54, 28.16, 54.7
28603,-28,-15,1037,-2660,-5460,630,243,-903,-73, 1020.58, 28.16, 54.7
28653,52,-27,1038,-5600,-12040,-9870,237,-906,-84, 1020.57, 28.10, 54.7
28703,104,-40,1049,-5460,-23730,-7630,238,-907,-73, 1020.52, 28.10, 54.6
28753,77,-29,1021,-4130,-20090,-2590,243,-906,-66, 1020.53, 28.12, 54.7
28803,68,-34,1040,2170,-8330,8610,231,-900,-70, 1020.54, 28.19, 54.7
28853,2,-16,1063,-560,-10570,9240,243,-894,-67, 1020.59, 28.19, 54.7
28903,0,-14,1030,-2450,-700,14560,234,-894,-61, 1020.59, 28.17, 54.7
28953,6,-12,1034,210,-3920,8400,240,-894,-61, 1020.56, 28.17, 54.7
29003,-19,-13,1002,70,-7210,2310,237,-900,-64, 1020.49, 28.14, 54.6
29053,-25,-14,1014,70,-1400,9030,243,-900,-66, 1020.57, 28.14, 54.6
29103,5,-17,1022,1750,5810,8820,238,-894,-61, 1020.52, 28.14, 54.6
29153,-24,-14,953,840,-3010,9940,234,-901,-61, 1020.51, 28.14, 54.7
29203,-93,0,995,6160,1050,7560,243,-895,-60, 1020.56, 28.16, 54.7
29253,-121,6,1086,7420,140,9940,244,-901,-58, 1020.55, 28.16, 54.6
29303,-156,0,1028,-22120,-3850,2520,240,-895,-52, 1020.50, 28.12, 54.6
29353,-160,41,1130,-70,2380,1260,241,-900,-61, 1020.47, 28.12, 54.6
29403,-128,2,1064,210,2730,-9380,238,-906,-61, 1020.50, 28.16, 54.6
29453,-175,26,1047,6160,1750,-14490,247,-907,-67, 1020.54, 28.19, 54.6
29503,-136,-4,1057,-12180,2310,-20930,235,-901,-66, 1020.58, 28.19, 54.6
29553,-46,-6,1005,-5950,-20370,-28560,238,-906,-70, 1020.56, 28.14, 54.6
29603,-38,-67,1004,-8330,8330,-11060,244,-898,-82, 1020.56, 28.14, 54.7
29653,51,23,833,2940,11900,-4970,243,-900,-96, 1020.55, 28.17, 54.6
29703,220,-8,981,1260,-6370,-29960,252,-892,-117, 1020.55, 28.16, 54.6
29753,166,-39,1026,1680,-7070,-4410,252,-873,-118, 1020.55, 28.16, 54.7
29803,109,-18,1046,-980,-4970,3150,261,-856,-123, 1020.55, 28.17, 54.7
29853,23,-30,1030,-1820,-1890,-6160,256,-846,-112, 1020.52, 28.17, 54.5
29903,-17,-9,1032,-2030,-3850,1050,261,-838,-117, 1020.52, 28.16, 54.7
29953,-6,-24,1041,-700,-4060,-910,258,-829,-118, 1020.47, 28.21, 54.7
30003,44,-21,1034,-1260,-5320,-14560,256,-819,-114, 1020.54, 28.21, 54.7
30053,54,-21,1035,-2030,-6580,-11550,255,-829,-112, 1020.60, 28.16, 54.7
30103,107,5,1052,-2590,1890,6930,261,-849,-115, 1020.44, 28.16, 54.7
30153,87,-12,1035,-1330,-5390,9870,258,-876,-129, 1020.53, 28.16, 54.7
30203,37,6,1006,-1190,-4130,13650,256,-895,-114, 1020.49, 28.17, 54.7
30253,-6,-5,1059,-4550,-2730,11060,255,-898,-97, 1020.58, 28.17, 54.7
30303,4,11,1027,-1470,-8960,840,246,-906,-90, 1020.56, 28.16, 54.7
30353,-132,-13,1061,-3010,-8960,9450,238,-906,-90, 1020.50, 28.19, 54.7
30403,-192,-31,1037,-3150,-420,12810,244,-900,-76, 1020.48, 28.19, 54.8
30453,-104,1,1025,140,5600,19320,241,-912,-79, 1020.54, 28.14, 54.8
30503,-27,-22,1024,-1400,-3150,2870,249,-903,-79, 1020.52, 28.14, 54.7
30553,-22,-3,1053,4620,-4690,770,243,-909,-81, 1020.56, 28.16, 54.7
30603,-26,-13,1030,350,-5180,770,247,-913,-79, 1020.51, 28.16, 54.7
30653,-30,-13,1037,-1400,-2450,770,246,-909,-76, 1020.46, 28.16, 54.7
30703,-28,-17,1031,-2380,-3920,840,249,-913,-87, 1020.47, 28.16, 54.7
30753,-28,-16,1037,-1120,-4130,770,243,-904,-75, 1020.59, 28.16, 54.8
30803,-30,-17,1034,-700,-3360,700,240,-909,-81, 1020.50, 28.19, 54.8
30853,-30,-13,1033,-910,-3220,700,240,-910,-79, 1020.51, 28.16, 54.8
30903,196,-102,1107,-2310,-2800,700,241,-901,-78, 1020.63, 28.16, 54.8
30953,109,-10,1028,-2310,-4550,-3640,240,-904,-78, 1020.62, 28.16, 54.8
31003,67,-49,1041,-2940,-5670,-1260,235,-900,-79, 1020.54, 28.16, 54.7
31053,55,-26,1037,-4690,-9590,-6440,232,-900,-72, 1020.52, 28.17, 54.8
31103,51,-54,1030,-3010,-11340,1050,232,-897,-75, 1020.50, 28.19, 54.8
31153,12,-46,968,-5180,-1400,18410,226,-906,-78, 1020.56, 28.19, 54.8
31203,-3,-47,1030,4270,-3710,16380,234,-904,-73, 1020.51, 28.21, 54.7
31253,-26,-19,1055,2170,-11270,10010,231,-900,-63, 1020.54, 28.16, 54.7
31303,-37,-5,1057,770,-6370,13300,240,-898,-63, 1020.59, 28.16, 54.8
31353,-109,-21,1045,-1120,-14910,8820,237,-898,-57, 1020.54, 28.19, 54.8
31403,-132,-4,1019,-1680,-9520,10780,238,-901,-58, 1020.57, 28.19, 54.7
31453,-107,1,1050,-1750,4130,11760,235,-900,-61, 1020.57, 28.19, 54.7
31503,-56,-22,1081,3010,-14420,630,241,-901,-61, 1020.53, 28.19, 54.7
31553,-86,43,1064,-2730,-7490,2730,238,-897,-58, 1020.52, 28.19, 54.7
31603,-66,-6,1022,2240,-10710,5110,241,-891,-55, 1020.51, 28.17, 54.7
31653,-169,-18,1030,2170,-2800,17850,252,-907,-60, 1020.61, 28.17, 54.7
31703,-163,20,1068,3430,2030,1330,244,-901,-58, 1020.51, 28.17, 54.7
31753,-190,-12,1020,-6580,18130,5950,256,-901,-60, 1020.47, 28.17, 54.7
31803,-184,-28,1020,-2380,4970,-18550,253,-906,-64, 1020.51, 28.17, 54.7
31853,-98,34,1026,1820,490,-31920,256,-910,-70, 1020.53, 28.21, 54.7
31903,-54,-46,1019,-2940,3150,-38990,250,-901,-79, 1020.57, 28.21, 54.7
31953,72,19,986,-4970,-2030,-33670,249,-904,-97, 1020.54, 28.21, 54.7
32003,149,-36,1070,-2590,2940,-22750,255,-897,-117, 1020.56, 28.17, 54.7
32053,247,-22,1014,2170,-6160,-24010,253,-859,-123, 1020.59, 28.17, 54.7
32103,217,-16,1036,840,-6650,-12600,258,-832,-118, 1020.54, 28.21, 54.7
32153,116,-18,1031,-2940,-2940,-14140,250,-826,-117, 1020.57, 28.21, 54.7
32203,84,-47,1083,-7630,1820,5880,253,-844,-130, 1020.52, 28.21, 54.8
32253,83,0,1064,-350,-4340,12600,250,-859,-123, 1020.53, 28.17, 54.8
32303,53,-19,1044,-1820,-6650,12320,246,-892,-121, 1020.53, 28.17, 54.8
32353,33,-14,1059,-280,-8890,16800,247,-903,-96, 1020.51, 28.23, 54.7
32403,-62,-10,1066,-210,-1960,22540,247,-904,-102, 1020.51, 28.19, 54.7
32453,-110,-8,1022,-2170,-8610,16730,241,-907,-82, 1020.49, 28.19, 54.7
32503,-232,-40,1014,-5180,-6230,13650,241,-895,-79, 1020.52, 28.23, 54.7
32553,-132,-17,1042,7490,-210,16100,244,-901,-75, 1020.54, 28.23, 54.8
32603,-62,-15,1051,2240,-4830,3360,243,-907,-73, 1020.52, 28.23, 54.7
32653,-31,7,1033,-70,-5740,-2870,240,-898,-73, 1020.52, 28.21, 54.7
32703,-13,-5,1031,-1050,-3710,-2170,240,-912,-72, 1020.50, 28.21, 54.8
32753,-26,-14,1034,-1610,-1050,70,237,-907,-75, 1020.60, 28.19, 54.8
32803,-26,-21,1028,-3780,-3780,630,237,-904,-73, 1020.50, 28.19, 54.8
32853,-27,-19,1031,-2660,-4060,840,246,-901,-81, 1020.52, 28.21, 54.8
32903,-26,-19,1030,-840,-3780,770,241,-904,-75, 1020.48, 28.25, 54.8
32953,-26,-15,1035,140,-3290,770,238,-900,-72, 1020.60, 28.25, 54.8
33003,-29,-18,1033,-1470,-2940,700,246,-900,-81, 1020.57, 28.25, 54.8
33053,27,-24,1032,-2310,-4760,4480,231,-904,-79, 1020.49, 28.25, 54.7
33103,111,-38,1017,-3080,-5320,-7490,235,-907,-72, 1020.56, 28.19, 54.8
33153,94,-26,1025,-1260,-3430,-1120,232,-897,-73, 1020.61, 28.19, 54.8
33203,18,1,1075,3850,-2450,22960,232,-903,-70, 1020.57, 28.19, 54.8
33253,-24,-37,1025,-1960,-6510,23450,240,-897,-73, 1020.54, 28.21, 54.8
33303,-149,-28,998,1330,-6510,19530,234,-909,-75, 1020.55, 28.21, 54.8
33353,-174,-14,1048,-2030,-8330,6510,232,-900,-69, 1020.52, 28.21, 54.8
33403,-87,4,1029,-1540,-10500,6860,238,-898,-73, 1020.48, 28.23, 54.8
33453,-89,-15,1029,-1680,-8610,700,238,-901,-57, 1020.52, 28.23, 54.7
33503,0,0,1031,-1400,-2590,7490,237,-903,-60, 1020.55, 28.21, 54.8
33553,-46,-36,1024,-1470,-6440,5460,243,-903,-61, 1020.53, 28.21, 54.8
33603,-164,-16,1028,2520,-8750,3360,241,-906,-64, 1020.52, 28.21, 54.8
33653,-182,40,992,420,560,5320,247,-913,-60, 1020.54, 28.26, 54.8
33703,-145,0,1042,-2380,5040,-4060,240,-903,-70, 1020.51, 28.26, 54.8
33753,-223,9,1090,-1890,4410,-2450,249,-912,-66, 1020.54, 28.25, 54.7
33803,-160,54,1107,-630,1540,-1470,252,-903,-78, 1020.52, 28.21, 54.7
33853,-79,-12,1013,-5180,-1330,-16870,243,-904,-79, 1020.47, 28.21, 54.8
33903,-180,-28,883,4690,-1610,-6230,255,-900,-88, 1020.53, 28.25, 54.8
33953,-11,11,1065,1750,3850,-770,258,-910,-96, 1020.48, 28.25, 54.7
34003,130,17,1068,1470,-910,-30240,261,-910,-111, 1020.50, 28.25, 54.7
34053,298,-62,1071,-3010,-700,-30660,262,-853,-121, 1020.51, 28.23, 54.7
34103,409,-65,1001,-6160,10080,-13930,259,-804,-103, 1020.54, 28.23, 54.7
34153,32,-83,1051,3500,-17080,-9940,261,-799,-93, 1020.57, 28.23, 54.7
34203,7,-10,1037,-140,-12040,-1050,253,-817,-120, 1020.57, 28.23, 54.8
34253,67,15,1052,-1260,-3220,3500,255,-838,-117, 1020.56, 28.21, 54.8
34303,61,-37,1062,770,-5390,4060,256,-874,-121, 1020.55, 28.23, 54.8
34353,42,-24,1078,-2030,-2310,2450,252,-886,-121, 1020.47, 28.23, 54.8
34403,36,-35,1057,-2240,-3220,13860,247,-904,-102, 1020.50, 28.21, 54.8
34453,-23,12,1039,-1540,-3010,31290,246,-903,-88, 1020.52, 28.25, 54.8
34503,-193,-6,1111,-1400,-3220,20090,252,-903,-81, 1020.54, 28.25, 54.7
34553,-150,-29,1004,-2380,-8890,14140,240,-900,-78, 1020.54, 28.23, 54.7
34603,-282,-27,1058,-630,1260,26880,240,-903,-79, 1020.56, 28.23, 54.8
34653,-74,-1,1024,700,-4130,7980,247,-901,-72, 1020.54, 28.23, 54.9
34703,-96,8,1032,1120,-3360,1680,241,-906,-76, 1020.56, 28.23, 54.9
34753,-28,-12,1031,-700,-3780,560,247,-901,-78, 1020.53, 28.23, 54.8
34803,-30,-15,1035,-1470,-3360,700,253,-912,-72, 1020.57, 28.25, 54.8
34853,-31,-15,1035,-1400,-3710,770,247,-904,-73, 1020.56, 28.25, 54.8
34903,-31,-17,1030,-1330,-4130,700,244,-898,-69, 1020.56, 28.25, 54.8
34953,-29,-14,1031,-840,-3990,700,253,-904,-76, 1020.54, 28.25, 54.8
35003,-31,-14,1035,-630,-3780,700,250,-909,-73, 1020.49, 28.25, 54.8
35053,-27,-13,1028,-1190,-4130,630,243,-913,-79, 1020.56, 28.21, 54.8
35103,-31,-15,1035,-1120,-3990,700,247,-898,-76, 1020.57, 28.21, 54.8
35153,-182,7,1027,-980,-4970,140,249,-906,-70, 1020.50, 28.25, 54.8
35203,-150,23,1032,70,-3150,1610,249,-916,-75, 1020.56, 28.25, 54.8
35253,-222,12,1065,-980,-4480,11130,258,-916,-76, 1020.51, 28.25, 54.8
35303,-180,43,1027,-2590,-1120,-11550,255,-906,-76, 1020.54, 28.25, 54.8
35353,-17,6,1069,-2380,-3780,-27650,249,-907,-90, 1020.54, 28.25, 54.8
35403,22,-53,1026,-7140,-4690,-33180,261,-904,-105, 1020.58, 28.25, 54.9
35453,94,-12,1016,-1540,-1260,-21700,258,-882,-120, 1020.53, 28.25, 54.9
35503,237,0,1053,-2730,-4060,-17710,256,-849,-117, 1020.55, 28.25, 54.8
35553,181,-16,1060,-6300,3990,-13790,256,-828,-117, 1020.51, 28.25, 54.9
35603,-7,-94,1077,-420,140,-3570,255,-817,-112, 1020.49, 28.21, 54.9
35653,52,3,1051,350,-14420,-4270,253,-819,-112, 1020.52, 28.21, 54.9
35703,199,-9,1046,140,-6650,-8050,253,-844,-127, 1020.55, 28.26, 54.9
35753,159,-27,1061,350,-5670,-1260,252,-861,-127, 1020.47, 28.26, 54.9
35803,102,-28,1109,-1610,-3080,23730,246,-892,-111, 1020.48, 28.26, 54.9
35853,61,-26,988,-6930,-5250,22750,237,-904,-93, 1020.52, 28.26, 54.9
35903,46,-8,866,-8960,-5040,25970,237,-904,-81, 1020.52, 28.26, 54.8
35953,-186,21,1176,840,-9100,39270,238,-898,-78, 1020.59, 28.26, 54.8
36003,-258,34,1274,-6580,-4900,20860,243,-900,-69, 1020.55, 28.26, 54.8
36053,-239,-13,1075,3290,-8400,14420,238,-901,-67, 1020.52, 28.23, 54.8
36103,-224,3,1017,-2520,-8820,7070,243,-910,-63, 1020.54, 28.23, 54.8
36153,-103,-1,1014,-3080,-7630,2730,237,-901,-67, 1020.54, 28.23, 55.0
36203,-29,-8,1048,840,-6790,1890,240,-903,-64, 1020.58, 28.26, 55.0
36253,-101,-3,1037,490,-8680,350,235,-897,-69, 1020.52, 28.26, 54.9
36303,-265,6,1038,-630,4970,9380,235,-900,-63, 1020.55, 28.25, 54.9
36353,-194,-20,1036,-140,7630,25620,243,-901,-73, 1020.48, 28.25, 54.9
36403,-169,5,918,-770,-70,-2730,243,-913,-67, 1020.57, 28.25, 54.9
36453,-97,1,1035,-2240,-1470,-11200,244,-906,-73, 1020.53, 28.28, 54.9
36503,38,19,1030,-3500,1120,-13160,246,-903,-70, 1020.55, 28.28, 55.0
36553,33,-54,1049,-4410,-5740,-19950,250,-909,-78, 1020.59, 28.23, 54.9
36603,217,-26,1085,-840,350,-19110,250,-909,-79, 1020.52, 28.25, 54.9
36653,238,-19,1032,6020,-630,-3850,246,-907,-84, 1020.55, 28.25, 54.9
36703,-25,-12,1021,-1260,-1750,70,247,-903,-78, 1020.56, 28.21, 54.9
36753,-26,-19,1034,-2310,70,700,249,-903,-82, 1020.55, 28.28, 54.9
36803,-35,-12,1028,-1190,-4270,700,255,-906,-91, 1020.62, 28.28, 55.0
36853,-33,-12,1031,-1120,-4200,770,246,-903,-85, 1020.61, 28.30, 55.0
36903,-33,-12,1035,-1190,-3920,700,247,-903,-88, 1020.56, 28.30, 54.9
36953,-33,-13,1034,-1400,-3570,770,253,-907,-94, 1020.52, 28.25, 54.9
37003,-33,-13,1034,-1330,-3780,770,249,-904,-73, 1020.54, 28.30, 54.9
37053,-33,-12,1032,-1190,-3920,770,247,-904,-84, 1020.57, 28.30, 54.9
37103,-33,-11,1035,-1260,-3570,770,247,-909,-87, 1020.51, 28.28, 54.9
37153,-35,-12,1033,-1330,-3500,770,255,-912,-87, 1020.54, 28.28, 54.9
37203,-34,-13,1032,-980,-4760,770,246,-907,-87, 1020.50, 28.26, 54.9
37253,-296,-58,1031,-1610,-3220,-2590,247,-907,-90, 1020.52, 28.25, 54.9
37303,-259,-33,1037,-2100,-2520,7630,255,-900,-88, 1020.55, 28.25, 54.8
37353,-258,-33,1016,-4690,-3500,-11270,261,-903,-97, 1020.55, 28.26, 54.8
37403,64,26,984,-2660,-1540,-16100,259,-895,-109, 1020.54, 28.26, 54.8
37453,259,-55,1052,70,-8540,-26530,265,-862,-123, 1020.61, 28.30, 54.9
37503,186,-48,1088,-3290,47110,-20930,258,-822,-117, 1020.50, 28.28, 54.9
37553,-15,-14,993,-2730,5180,-9800,264,-795,-103, 1020.50, 28.28, 54.9
37603,-27,8,1079,-560,-1680,-3290,258,-799,-105, 1020.64, 28.30, 55.0
37653,10,6,1003,-1050,-20580,1750,261,-801,-106, 1020.54, 28.28, 55.0
37703,166,-21,1054,-980,-44870,-18480,261,-816,-114, 1020.58, 28.28, 54.9
37753,257,-4,1022,-280,-8470,-350,253,-837,-126, 1020.59, 28.30, 54.9
37803,191,3,953,910,-1820,19320,238,-877,-120, 1020.53, 28.30, 54.9
37853,209,-24,939,-4340,-1610,25060,246,-898,-99, 1020.53, 28.32, 54.9
37903,-138,-13,1087,560,-4130,32130,238,-903,-90, 1020.58, 28.30, 54.9
37953,-166,8,1091,-8540,-11900,23940,240,-906,-75, 1020.54, 28.30, 55.0
38003,-225,-77,892,1610,-2240,29260,240,-903,-67, 1020.55, 28.30, 55.0
38053,-289,-17,1021,1610,-8190,18550,232,-900,-63, 1020.55, 28.30, 55.0
38103,-102,16,1056,70,-7490,7700,241,-892,-64, 1020.43, 28.28, 55.0
38153,-89,4,1021,-2730,-9450,4130,240,-906,-63, 1020.50, 28.28, 55.0
38203,-72,-2,1036,-910,-7840,5320,237,-904,-63, 1020.50, 28.28, 54.9
38253,-139,3,1022,-1260,-6860,6790,237,-904,-66, 1020.54, 28.32, 54.9
38303,-23,-10,1003,-2870,-9100,1050,241,-906,-63, 1020.52, 28.32, 55.0
38353,-117,-10,1049,1820,-3080,6650,229,-898,-60, 1020.57, 28.28, 54.9
38403,-18,10,1020,-980,5950,4550,243,-906,-73, 1020.55, 28.28, 54.9
38453,-132,14,1045,-770,-1400,280,238,-900,-67, 1020.53, 28.28, 55.0
38503,-189,40,1059,-2240,-2030,-3360,246,-906,-66, 1020.47, 28.28, 55.0
38553,-73,2,1039,-4200,3290,2100,253,-901,-63, 1020.48, 28.28, 54.8
38603,-32,-35,963,-3220,-350,-1820,256,-901,-84, 1020.47, 28.32, 55.0
38653,223,-20,1076,5110,-560,-17150,252,-901,-81, 1020.51, 28.30, 55.0
38703,232,-57,1034,-1330,-7980,-25830,249,-906,-81, 1020.51, 28.30, 55.0
38753,-16,-19,1012,-770,-5530,-9800,255,-909,-82, 1020.53, 28.28, 55.0
38803,56,-66,1045,-560,3990,560,246,-901,-84, 1020.53, 28.32, 55.0
38853,-35,-15,1036,-1610,-3640,630,250,-903,-85, 1020.49, 28.32, 55.0
38903,-29,-18,1028,-2030,-5110,700,253,-903,-81, 1020.54, 28.30, 55.0
38953,-33,-15,1033,-210,-3500,770,258,-909,-82, 1020.57, 28.30, 55.0
39003,-26,-13,1029,-420,-4480,700,247,-906,-82, 1020.49, 28.28, 55.0
39053,-30,-10,1039,-1750,-3850,-3990,255,-907,-84, 1020.47, 28.32, 55.0
39103,-30,-14,1031,-1540,-3080,770,252,-900,-78, 1020.51, 28.32, 55.0
39153,-12,-22,1039,-1260,-2520,770,252,-904,-84, 1020.54, 28.28, 55.0
39203,129,-13,1036,-2450,-3990,840,247,-906,-84, 1020.52, 28.28, 55.0
39253,240,-77,1043,-6860,-7140,-21420,241,-903,-78, 1020.60, 28.28, 55.0
39303,353,6,801,-8470,-8610,-6790,240,-897,-81, 1020.55, 28.28, 55.0
39353,80,-39,1025,3570,140,27300,235,-898,-72, 1020.53, 28.28, 55.0
39403,-179,20,1181,3780,-9170,26600,234,-904,-73, 1020.58, 28.26, 55.0
39453,-249,-18,1068,-1400,-7070,25620,240,-903,-66, 1020.59, 28.26, 54.9
39503,-118,-8,1026,-4340,-18550,7910,240,-906,-61, 1020.55, 28.28, 55.0
39553,-162,-17,1004,-3920,-12180,1120,244,-895,-60, 1020.57, 28.28, 55.0
39603,-74,-18,1062,2380,-5040,5390,246,-894,-63, 1020.61, 28.28, 55.0
39653,-107,29,1061,-4060,-11340,-910,235,-892,-63, 1020.53, 28.32, 55.0
39703,-141,5,1023,-2100,8820,19810,246,-904,-69, 1020.51, 28.32, 54.9
39753,-209,45,1044,8400,-9870,-1330,249,-906,-57, 1020.62, 28.30, 54.9
39803,-231,16,1065,2660,3640,-13230,253,-903,-64, 1020.58, 28.30, 54.9
39853,-121,-1,1025,-3780,8050,-9940,250,-904,-70, 1020.56, 28.30, 54.9
39903,-63,-20,1023,-2940,2450,-35350,249,-907,-76, 1020.51, 28.28, 54.9
39953,0,50,989,1960,-8120,-41650,249,-901,-91, 1020.54, 28.30, 54.9
40003,335,-1,1049,-5040,-2800,-37730,255,-900,-106, 1020.59, 28.30, 55.0
40053,306,-54,1012,-1610,-210,-12250,265,-882,-123, 1020.53, 28.32, 55.0
40103,83,-47,1033,910,-3220,-9520,259,-865,-121, 1020.52, 28.32, 55.0
40153,-29,-5,1045,1750,-5880,350,258,-849,-120, 1020.50, 28.28, 55.0
40203,37,-2,1007,-1750,-630,770,268,-855,-118, 1020.50, 28.28, 55.0
40253,105,-23,1019,-140,-9030,-1260,259,-867,-124, 1020.57, 28.28, 55.0
40303,124,-26,1042,-1190,-4550,560,262,-862,-123, 1020.53, 28.30, 55.0
40353,106,-54,1019,-1820,-4760,6930,255,-892,-115, 1020.54, 28.30, 55.0
40403,121,-7,1042,-2170,560,12600,256,-895,-103, 1020.55, 28.30, 55.0
40453,21,-23,1036,-3080,-10710,12740,246,-897,-87, 1020.51, 28.32, 55.0
40503,-207,-45,890,980,-9380,25480,244,-898,-87, 1020.53, 28.32, 55.1
40553,-356,-3,1074,2380,-2590,36890,238,-898,-82, 1020.47, 28.30, 55.1
40603,-147,-11,1054,8400,-3850,25410,247,-901,-69, 1020.50, 28.30, 55.0
40653,-29,-45,1024,-1330,-2870,2170,256,-901,-73, 1020.58, 28.32, 55.0
40703,-27,-12,1033,-350,-6300,280,250,-909,-76, 1020.52, 28.30, 55.0
40753,-29,-12,1032,-1260,-4200,700,246,-904,-78, 1020.53, 28.30, 55.1
40803,-24,-14,1021,-2310,-3290,910,246,-904,-76, 1020.55, 28.30, 55.0
40853,-28,-11,1029,-1750,-3010,1540,249,-906,-72, 1020.55, 28.32, 55.0
40903,-31,-16,1030,-1400,-3780,1050,252,-901,-70, 1020.60, 28.32, 55.0
40953,-32,-15,1032,-1050,-3220,770,252,-904,-76, 1020.58, 28.30, 55.0
41003,-31,-15,1030,-1400,-3220,770,243,-901,-76, 1020.50, 28.30, 55.1
41053,-44,-20,1037,-1890,-4340,5390,249,-910,-75, 1020.51, 28.30, 55.0
41103,-31,-16,1031,-1540,-3570,840,249,-910,-70, 1020.56, 28.28, 55.0
41153,-62,-28,1041,-910,-4060,5880,256,-907,-73, 1020.59, 28.28, 55.0
41203,-30,-15,1030,-840,-3780,770,252,-906,-76, 1020.58, 28.32, 55.0
41253,-44,-21,1036,560,-3990,700,244,-903,-73, 1020.53, 28.32, 55.0
41303,-31,-17,1032,-560,-4340,560,252,-904,-73, 1020.51, 28.34, 55.0
41353,-33,-20,1034,-1470,-2520,70,246,-900,-78, 1020.57, 28.35, 55.0
41403,-32,-26,1030,-1260,-3990,-980,249,-904,-73, 1020.51, 28.35, 55.0
41453,-61,-89,1028,-770,-5810,-4550,247,-907,-73, 1020.49, 28.32, 55.0
41503,-51,-207,1072,-1890,-5460,-16520,238,-898,-81, 1020.51, 28.32, 55.0
41553,-43,-257,1024,2940,-5390,0,244,-901,-72, 1020.53, 28.32, 55.0
41603,-159,-275,1113,-3850,-5110,-140,244,-886,-76, 1020.49, 28.30, 55.0
41653,-164,-20,1222,-490,8470,-6510,246,-886,-78, 1020.47, 28.30, 55.1
41703,-14,71,1014,6790,-700,-3920,243,-885,-75, 1020.51, 28.32, 55.1
41753,30,155,1028,7140,-18340,-1190,247,-870,-61, 1020.51, 28.32, 55.0
41803,10,179,1036,-2520,-5460,-2240,238,-862,-60, 1020.52, 28.32, 55.0
41853,8,132,1063,-11900,-2520,-1120,238,-862,-64, 1020.60, 28.32, 55.0
41903,1,169,1037,-8680,-8050,-2940,238,-864,-60, 1020.50, 28.32, 55.0
41953,0,-8,1062,-4830,-2660,140,232,-859,-64, 1020.61, 28.30, 55.0
42003,15,150,990,-1400,770,28070,243,-859,-69, 1020.53, 28.32, 55.0
42053,19,94,1019,7070,140,11620,237,-861,-69, 1020.55, 28.32, 55.0
42103,5,213,1048,7630,-1540,22750,244,-879,-69, 1020.51, 28.35, 55.0
42153,60,187,1032,5880,-5110,17080,252,-879,-66, 1020.53, 28.35, 55.0
42203,-41,123,977,-280,-3990,-3990,258,-882,-70, 1020.46, 28.37, 55.0
42253,-111,86,956,-1540,-11830,-10430,259,-891,-69, 1020.52, 28.32, 55.0
42303,-128,-42,1606,-10990,-1190,-12320,250,-898,-73, 1020.45, 28.32, 55.1
42353,-71,6,797,-14280,5670,-6790,246,-910,-78, 1020.54, 28.34, 55.1
42403,67,-71,994,770,-8750,-12880,238,-910,-88, 1020.50, 28.34, 55.0
42453,-38,-135,875,0,-7490,-4830,223,-913,-73, 1020.49, 28.34, 55.0
42503,42,-175,1019,-1960,-3430,-5670,229,-918,-84, 1020.52, 28.34, 55.0
42553,29,-246,1025,2590,-2590,-12460,220,-928,-78, 1020.53, 28.34, 55.1
42603,-19,-212,1027,3640,-6860,-9870,217,-921,-79, 1020.54, 28.34, 55.1
42653,-43,-123,1037,910,-2240,5110,208,-916,-72, 1020.52, 28.34, 55.0
42703,-43,-83,1055,-770,-3920,-490,214,-928,-72, 1020.51, 28.34, 55.0
42753,-35,-140,1009,-3570,-7280,-8750,211,-924,-72, 1020.57, 28.37, 55.0
42803,-8,-165,1029,-7490,-1680,-630,211,-912,-70, 1020.59, 28.37, 55.1
42853,-48,-173,1037,-1680,-6230,3500,214,-927,-78, 1020.53, 28.34, 55.1
42903,-56,-89,1082,-560,-9590,5110,220,-915,-79, 1020.55, 28.34, 55.1
42953,-141,-20,1028,-1680,-2590,3570,235,-916,-78, 1020.56, 28.35, 55.0
43003,-57,58,1018,1050,-1330,-1820,232,-910,-79, 1020.54, 28.34, 55.0
43053,37,106,1028,-2940,-3570,-840,235,-904,-81, 1020.55, 28.34, 55.1
43103,77,239,941,2100,-3150,-8890,238,-906,-79, 1020.55, 28.34, 55.1
43153,35,145,1033,840,-4690,-4410,235,-891,-79, 1020.58, 28.34, 55.1
43203,-49,62,1041,-1960,-1750,4830,240,-894,-82, 1020.46, 28.34, 55.1
43253,-46,0,1050,-560,-2450,70,240,-895,-75, 1020.50, 28.34, 55.1
43303,-35,-21,1036,-2520,-5880,6580,237,-900,-79, 1020.52, 28.34, 55.1
43353,-23,-9,1028,-1190,-3990,3500,246,-888,-81, 1020.54, 28.35, 55.1
43403,-20,4,1013,-840,-3990,3360,232,-903,-79, 1020.57, 28.35, 55.1
43453,-28,-14,1028,-770,-4340,1400,247,-895,-75, 1020.44, 28.35, 55.1
43503,-33,-11,1035,-560,-3430,630,249,-897,-87, 1020.56, 28.37, 55.1
43553,-30,-12,1032,-1120,-4130,630,249,-891,-76, 1020.55, 28.37, 55.2
43603,-31,-9,1034,-980,-4340,630,246,-903,-84, 1020.55, 28.37, 55.1
43653,-33,-10,1033,-1400,-3990,630,240,-894,-75, 1020.57, 28.34, 55.1
43703,-31,-11,1031,-1330,-3780,630,241,-886,-72, 1020.52, 28.34, 55.2
43753,-26,-50,1027,-350,-3150,70,235,-900,-84, 1020.52, 28.35, 55.2
43803,-108,-1,984,-770,-5740,-8400,237,-894,-79, 1020.57, 28.35, 55.2
43853,-63,-210,1032,-2380,-1890,6020,241,-898,-85, 1020.46, 28.37, 55.2
43903,-26,-263,1027,1330,-9450,11410,247,-894,-73, 1020.51, 28.34, 55.2
43953,-106,-218,1030,-2870,-5040,7000,249,-886,-76, 1020.56, 28.34, 55.2
44003,-113,-113,1027,3990,-5040,11340,250,-877,-70, 1020.56, 28.35, 55.2
44053,-71,115,1018,1610,-9940,2100,243,-871,-70, 1020.57, 28.35, 55.2
44103,-75,235,1235,-10150,-1190,-1680,235,-867,-66, 1020.52, 28.35, 55.2
44153,-8,228,1050,-17220,-14210,-12950,240,-867,-64, 1020.54, 28.35, 55.2
44203,78,434,1226,13160,3430,-14210,229,-868,-69, 1020.54, 28.35, 55.2
44253,193,355,934,4830,-8750,-6440,234,-864,-64, 1020.52, 28.35, 55.2
44303,52,186,1022,-49560,-5530,-10080,234,-861,-61, 1020.56, 28.35, 55.2
44353,-72,191,1030,-7070,-980,9660,232,-856,-61, 1020.52, 28.35, 55.2
44403,-88,127,987,13580,910,9030,238,-868,-67, 1020.57, 28.35, 55.2
44453,-30,145,1035,5460,-3920,8190,244,-874,-64, 1020.53, 28.35, 55.2
44503,-52,176,1031,4830,-9030,-1050,249,-874,-69, 1020.53, 28.35, 55.2
44553,13,160,1065,1190,-7980,-4130,247,-891,-73, 1020.56, 28.34, 55.2
44603,70,35,766,-1400,6370,8890,240,-895,-73, 1020.56, 28.34, 55.3
44653,-16,-124,1075,5460,210,9870,237,-909,-79, 1020.59, 28.35, 55.3
44703,-111,-251,963,-1190,-3080,44730,241,-916,-75, 1020.55, 28.35, 55.3
44753,-169,-346,960,-6230,-2660,-10290,226,-918,-78, 1020.58, 28.35, 55.3
44803,15,-398,1069,15540,-4270,-13230,214,-918,-72, 1020.55, 28.39, 55.3
44853,86,-452,1043,-6790,-9660,-18410,214,-921,-69, 1020.56, 28.39, 55.3
44903,-137,-205,1113,7560,3780,-13790,211,-916,-64, 1020.52, 28.39, 55.3
44953,-22,-154,1001,490,-7490,8330,214,-912,-73, 1020.58, 28.39, 55.3
45003,-38,-192,1085,-11760,4340,-1820,213,-925,-79, 1020.58, 28.39, 55.4
45053,0,-119,1041,-3080,-8820,-840,219,-916,-73, 1020.58, 28.37, 55.4
45103,-25,-60,1015,630,-7630,-3220,217,-910,-67, 1020.58, 28.37, 55.3
45153,-2,-11,1045,-2730,-2520,2380,217,-913,-76, 1020.55, 28.41, 55.4
45203,-68,101,1031,-770,-4620,-420,228,-906,-79, 1020.58, 28.39, 55.4
45253,42,193,823,3920,1750,-1680,232,-904,-73, 1020.56, 28.39, 55.4
45303,41,196,1026,2380,-1330,70,237,-898,-76, 1020.61, 28.37, 55.4
45353,1,162,1033,-980,-3360,-4200,235,-900,-78, 1020.51, 28.37, 55.3
45403,-38,-4,1051,-1400,-2730,-700,238,-892,-75, 1020.51, 28.34, 55.3
45453,-31,-6,1035,-1890,-5880,7560,244,-898,-75, 1020.50, 28.39, 55.3
45503,-33,-25,1026,-1190,-3710,3850,234,-895,-79, 1020.52, 28.39, 55.4
45553,-34,-10,1035,-350,-3360,630,243,-903,-78, 1020.54, 28.37, 55.4
45603,-33,-15,1029,-770,-4620,490,237,-894,-87, 1020.54, 28.37, 55.4
45653,-31,-12,1033,-980,-3850,-560,238,-891,-78, 1020.53, 28.41, 55.4
45703,-32,-10,1035,-1120,-4200,490,241,-897,-75, 1020.54, 28.39, 55.4
45753,-31,-11,1032,-1190,-4620,560,235,-898,-75, 1020.51, 28.39, 55.5
45803,-32,-10,1034,-1050,-3710,560,229,-892,-70, 1020.54, 28.35, 55.5
45853,-31,-9,1034,-910,-3990,560,238,-892,-78, 1020.55, 28.35, 55.5
45903,-22,29,1025,-1330,-4620,630,238,-891,-73, 1020.57, 28.37, 55.5
45953,-23,44,1013,-1050,-3920,5180,238,-900,-81, 1020.54, 28.37, 55.5
46003,-53,62,1036,-1470,-3430,24010,243,-903,-76, 1020.56, 28.37, 55.6
46053,-92,155,1004,-8820,-5040,-8120,241,-903,-87, 1020.56, 28.39, 55.6
46103,36,81,1050,-8190,-8540,-9170,238,-897,-73, 1020.60, 28.39, 55.6
46153,-76,4,1054,6510,-1050,-2940,241,-907,-84, 1020.55, 28.35, 55.6
46203,-66,41,1073,1470,-8260,-7350,240,-910,-73, 1020.49, 28.39, 55.6
46253,-75,-54,1053,-490,-6160,-3570,231,-906,-75, 1020.49, 28.39, 55.6
46303,-46,-59,1013,490,-3360,-15890,220,-912,-72, 1020.52, 28.39, 55.7
46353,-20,-106,1004,-350,-2450,-10500,211,-909,-85, 1020.51, 28.35, 55.7
46403,0,-162,1057,980,-420,-4200,211,-913,-72, 1020.52, 28.35, 55.6
46453,-14,-185,1038,2450,-4340,-3640,208,-910,-75, 1020.47, 28.41, 55.6
46503,18,-167,1018,2520,-980,-1330,205,-913,-72, 1020.50, 28.41, 55.7
46553,-3,-140,1045,-2870,-6300,-10220,202,-918,-78, 1020.53, 28.34, 55.7
46603,-24,-188,1031,-3920,-7280,2660,204,-913,-70, 1020.56, 28.37, 55.7
46653,0,-174,1055,-3850,-1260,6300,204,-910,-73, 1020.56, 28.37, 55.7
46703,-5,-158,1016,70,-8120,9030,219,-910,-79, 1020.56, 28.37, 55.7
46753,-47,-183,1036,-2730,-3290,7840,217,-912,-76, 1020.49, 28.37, 55.8
46803,5,-129,1040,1540,-7630,6230,228,-907,-78, 1020.52, 28.43, 55.8
46853,-24,-37,980,-8750,-1750,11830,235,-901,-72, 1020.50, 28.41, 55.8
46903,-20,-18,981,11130,-1960,19250,243,-901,-82, 1020.58, 28.41, 55.8
46953,-116,54,1195,-3290,-980,2940,238,-883,-69, 1020.53, 28.41, 55.8
47003,-40,94,952,5320,-7560,-140,246,-874,-72, 1020.50, 28.41, 55.8
47053,2,203,1050,5880,-11410,3640,246,-876,-64, 1020.57, 28.41, 55.8
47103,-15,183,996,-7490,1960,-1540,247,-862,-61, 1020.49, 28.37, 55.8
47153,11,217,1068,-5460,-4760,-7630,235,-864,-63, 1020.51, 28.37, 55.8
47203,12,161,1022,-5950,-4900,-4480,244,-858,-66, 1020.48, 28.37, 55.9
47253,-1,150,1047,-4760,-910,21210,240,-862,-60, 1020.55, 28.41, 55.9
47303,19,122,1039,3920,-3850,3780,240,-858,-55, 1020.58, 28.41, 55.9
47353,-40,108,1042,3430,-350,18480,244,-862,-66, 1020.49, 28.41, 55.9
47403,-68,110,1024,4620,-7140,630,247,-879,-67, 1020.50, 28.41, 55.9
47453,-68,81,1041,-560,-2520,-3430,246,-876,-69, 1020.55, 28.41, 55.9
47503,-61,46,1022,2940,-9940,-8190,250,-871,-75, 1020.51, 28.41, 55.9
47553,-3,-207,1028,-12740,-11200,-9380,243,-885,-72, 1020.58, 28.41, 55.9
47603,34,-130,959,-980,490,420,252,-892,-70, 1020.56, 28.39, 55.9
47653,-17,-181,1047,-16450,-7000,-7840,253,-898,-78, 1020.53, 28.39, 55.9
47703,-68,-161,1019,910,-1890,560,244,-904,-88, 1020.57, 28.43, 55.9
47753,-52,-154,1045,-840,-3360,-910,241,-907,-78, 1020.54, 28.41, 55.9
47803,-27,-25,1000,-630,-5110,3080,246,-904,-84, 1020.55, 28.41, 56.0
47853,19,-68,1041,2100,-5040,-6230,246,-907,-79, 1020.56, 28.41, 56.0
47903,-13,10,1019,-1400,-2870,-980,244,-907,-82, 1020.48, 28.41, 55.9
47953,-40,-19,1034,-1050,-3500,-2100,232,-904,-87, 1020.49, 28.41, 56.0
48003,-32,-16,1032,-1470,-4130,140,238,-904,-81, 1020.53, 28.43, 56.0
48053,60,37,1007,-2660,-3920,560,237,-909,-90, 1020.54, 28.43, 56.0
48103,-37,-21,1034,-1120,-4130,5950,235,-909,-85, 1020.52, 28.43, 56.0
48153,-39,-21,1029,-1260,-4060,1610,235,-904,-82, 1020.52, 28.43, 56.0
48203,-20,-10,1030,-1190,-3920,980,243,-906,-85, 1020.56, 28.43, 56.0
48253,-68,-21,1034,-770,-3570,980,235,-906,-82, 1020.51, 28.44, 56.0
48303,-35,-69,1032,1610,-3430,-280,244,-903,-82, 1020.58, 28.44, 56.0
48353,76,-166,1061,-840,-5040,-18900,237,-903,-79, 1020.51, 28.48, 56.0
48403,1,-245,1022,-3220,-3500,12740,246,-904,-79, 1020.51, 28.39, 56.0
48453,-5,-247,1065,6090,-2870,22820,243,-895,-84, 1020.51, 28.39, 56.1
48503,-131,-134,950,-16940,-4480,11900,238,-889,-75, 1020.53, 28.41, 56.1
48553,-200,-22,984,17080,-10360,-3710,255,-879,-70, 1020.54, 28.41, 56.1
48603,-57,173,990,2030,-10430,-12530,249,-867,-61, 1020.55, 28.43, 56.1
48653,67,320,1101,-8260,0,-22400,237,-861,-61, 1020.52, 28.44, 56.1
48703,32,195,1017,-12320,-5530,-12110,231,-855,-58, 1020.53, 28.44, 56.1
48753,27,201,1039,-10780,-6300,-9170,226,-855,-72, 1020.56, 28.46, 56.1
48803,57,165,1028,-7490,2660,9940,225,-847,-67, 1020.53, 28.46, 56.1
48853,-31,188,1030,8820,-2310,9870,232,-859,-66, 1020.57, 28.43, 56.1
48903,-86,230,1002,12250,-1820,13720,234,-853,-60, 1020.50, 28.44, 56.1
48953,-10,240,1054,7350,-11060,-4060,235,-865,-66, 1020.53, 28.44, 56.1
49003,-25,163,1077,2520,-10010,70,240,-865,-72, 1020.51, 28.43, 56.1
49053,27,114,1078,-17360,-9170,-4130,249,-886,-70, 1020.54, 28.43, 56.1
49103,-33,-22,647,-16240,-2450,-1960,241,-901,-78, 1020.51, 28.44, 56.2
49153,66,-122,924,4620,8820,10780,235,-907,-81, 1020.54, 28.43, 56.2
49203,-73,-253,882,-1260,-4410,-1960,217,-916,-82, 1020.55, 28.43, 56.1
49253,-17,-274,1047,1050,-2450,-5600,213,-913,-82, 1020.58, 28.44, 56.1
49303,7,-302,1026,8960,-5880,-22470,204,-915,-81, 1020.53, 28.44, 56.2
49353,31,-268,1023,-1400,1120,3010,199,-922,-78, 1020.55, 28.50, 56.2
49403,22,-162,1053,-4340,-4830,-5530,195,-913,-76, 1020.51, 28.44, 56.2
49453,23,-176,1040,630,-11130,770,204,-919,-75, 1020.52, 28.44, 56.2
49503,27,-172,1036,-4690,-8470,1120,208,-919,-78, 1020.58, 28.44, 56.3
49553,-8,-129,1015,-4200,-6510,6090,213,-916,-72, 1020.57, 28.46, 56.3
49603,-72,-100,1009,-2310,-1820,3570,216,-913,-79, 1020.57, 28.46, 56.3
49653,-79,-24,994,-5250,-1120,-10570,220,-906,-78, 1020.53, 28.43, 56.3
49703,11,46,1024,3710,-350,-4760,228,-907,-76, 1020.54, 28.43, 56.2
49753,-76,202,1009,-5810,-4130,-8330,225,-898,-78, 1020.50, 28.46, 56.2
49803,67,251,1051,3920,-9030,-15400,232,-891,-78, 1020.60, 28.46, 56.2
49853,17,134,1021,2870,-3080,-13930,220,-894,-79, 1020.60, 28.46, 56.2
49903,-48,21,1039,-2870,-350,-210,223,-892,-78, 1020.57, 28.44, 56.2
49953,-72,-42,1040,-2030,-4830,6160,231,-889,-85, 1020.54, 28.44, 56.2
50003,-20,-46,1044,-1820,-2380,11830,234,-891,-81, 1020.52, 28.41, 56.2
50053,-42,-26,1035,-1050,-2520,2450,223,-889,-82, 1020.53, 28.48, 56.2
50103,-29,-12,1036,-630,-3570,910,241,-900,-79, 1020.58, 28.48, 56.3
50153,-29,-14,1031,-1050,-4410,560,237,-889,-79, 1020.51, 28.43, 56.3
50203,-25,-8,1035,-840,-4620,560,226,-886,-78, 1020.51, 28.43, 56.2
50253,-25,-15,1022,-1400,-4830,490,243,-897,-78, 1020.55, 28.43, 56.2
50303,-30,-12,1036,-70,-2940,490,234,-888,-79, 1020.57, 28.44, 56.2
50353,-32,-11,1035,-560,-3430,420,229,-897,-84, 1020.50, 28.44, 56.3
50403,-28,-3,1034,-2520,-6300,560,232,-891,-79, 1020.56, 28.43, 56.3
50453,14,66,997,-1750,-2520,13440,237,-897,-81, 1020.55, 28.43, 56.3
50503,20,111,1048,-6790,-910,33810,238,-895,-81, 1020.57, 28.43, 56.3
50553,45,163,1057,-350,-4480,-7770,232,-900,-81, 1020.58, 28.48, 56.3
50603,-20,176,1006,5110,-4130,6230,222,-910,-76, 1020.55, 28.48, 56.4
50653,-57,23,1043,-3010,-5880,8190,225,-912,-81, 1020.58, 28.44, 56.4
50703,-90,-44,972,2100,-8680,-7420,216,-907,-78, 1020.52, 28.46, 56.4
50753,-77,-222,1070,490,-3500,70,216,-916,-81, 1020.55, 28.46, 56.4
50803,-48,-180,1056,2870,-3640,-2940,210,-916,-75, 1020.52, 28.46, 56.4
50853,46,-152,1051,5950,-2380,1960,205,-912,-73, 1020.59, 28.46, 56.4
50903,6,-137,1009,5880,-6720,-2030,204,-915,-73, 1020.59, 28.46, 56.4
50953,-58,-321,1069,-1540,-3850,1890,201,-918,-79, 1020.59, 28.44, 56.4
51003,-8,-135,1043,-4410,-4970,980,205,-912,-66, 1020.50, 28.44, 56.5
51053,16,-195,1029,-6230,-6860,6370,204,-918,-84, 1020.57, 28.44, 56.5
51103,-28,-208,1041,-2870,-6160,11410,213,-910,-82, 1020.51, 28.44, 56.5
51153,-22,-165,1004,-560,-6580,13020,219,-912,-81, 1020.55, 28.48, 56.5
51203,-58,-96,1028,-2870,-4340,10850,220,-907,-78, 1020.51, 28.44, 56.5
51253,-13,-72,1031,-1260,6160,19250,234,-898,-72, 1020.48, 28.44, 56.4
51302,58,1,1054,-4200,-4550,13160,237,-901,-73, 1020.51, 28.43, 56.4
51351,-7,35,974,-19530,70,6510,249,-889,-78, 1020.49, 28.43, 56.5
51401,-62,117,1010,17570,-2310,-1120,244,-879,-70, 1020.48, 28.44, 56.6
51451,1,124,962,6720,-9800,-2100,244,-868,-70, 1020.56, 28.44, 56.6
51501,-54,99,1077,-5110,-280,-12950,244,-871,-61, 1020.51, 28.44, 56.5
51551,-15,146,1084,-9240,-5880,-8680,237,-867,-64, 1020.54, 28.48, 56.5
51601,-2,112,1032,-12460,-6230,-5600,232,-853,-66, 1020.54, 28.48, 56.5
51651,-3,168,1020,-2100,-6230,-5460,223,-856,-64, 1020.52, 28.48, 56.4
51701,-12,171,1038,-4900,-70,7910,226,-858,-66, 1020.54, 28.46, 56.4
51750,47,184,1034,6510,-2940,3360,234,-865,-64, 1020.55, 28.46, 56.6
51799,-32,111,1023,13300,-2450,5530,231,-861,-66, 1020.59, 28.46, 56.5
51848,-77,72,981,7000,-2030,23800,246,-873,-60, 1020.54, 28.46, 56.5
51897,44,-13,1164,1050,-560,8750,253,-871,-60, 1020.58, 28.44, 56.6
51947,-104,-22,1047,-560,-7420,-840,247,-873,-64, 1020.57, 28.44, 56.6
51996,-58,-19,1046,-13230,6790,2940,250,-892,-72, 1020.48, 28.44, 56.6
52045,16,-7,883,-6230,-6440,-15540,246,-892,-76, 1020.46, 28.46, 56.6
52095,-32,-27,610,-21140,-2520,-10220,249,-901,-78, 1020.59, 28.50, 56.5
52145,41,-222,1023,4060,-1820,1820,238,-901,-88, 1020.55, 28.50, 56.6
52195,-9,-217,1035,-3010,-2870,4060,229,-915,-79, 1020.52, 28.50, 56.6
52245,-92,-142,1032,-2170,-2870,3710,238,-909,-82, 1020.47, 28.50, 56.7
52295,-33,-21,1031,-1400,-4270,1540,243,-904,-79, 1020.53, 28.48, 56.6
52345,-27,-23,1024,-910,-5040,-3780,235,-906,-81, 1020.55, 28.50, 56.6
52395,-23,-16,1021,-1330,-4410,-3850,234,-909,-79, 1020.54, 28.50, 56.6
52445,-30,-11,1039,-1190,-4340,-1540,238,-909,-85, 1020.52, 28.48, 56.6
52495,-25,-21,1029,-1610,-4270,840,240,-913,-76, 1020.52, 28.48, 56.6
52545,-33,-17,1033,-1260,-3710,490,237,-918,-81, 1020.55, 28.50, 56.6
52595,-31,-17,1031,-980,-3850,490,240,-913,-73, 1020.54, 28.50, 56.6
52645,-32,-16,1034,-910,-3850,490,234,-912,-84, 1020.55, 28.50, 56.7
52695,-27,-107,1039,-910,-3710,490,238,-912,-76, 1020.59, 28.50, 56.7
52745,-34,4,1030,-700,-4550,0,231,-907,-76, 1020.59, 28.50, 56.7
52795,-33,-12,1034,-840,-4200,-420,237,-915,-79, 1020.57, 28.46, 56.7
52845,-27,-19,1031,-840,-4200,-350,234,-906,-75, 1020.55, 28.48, 56.7
52895,-25,-22,1036,-700,-4830,-700,240,-918,-76, 1020.58, 28.48, 56.7
52945,-30,-15,1034,-910,-4340,-980,240,-916,-82, 1020.55, 28.50, 56.7
52995,-32,-14,1032,-1050,-3990,-280,231,-898,-81, 1020.50, 28.50, 56.7
53045,-34,-15,1031,-1260,-3780,490,231,-909,-81, 1020.56, 28.50, 56.7
53095,-32,-16,1031,-1260,-4200,560,237,-904,-79, 1020.51, 28.52, 56.7
53145,-17,-10,1041,-630,-4410,560,240,-912,-84, 1020.48, 28.52, 56.7
53195,-75,-77,1540,25060,-18830,-23800,223,-904,-79, 1020.52, 28.48, 56.7
53245,-34,-12,1674,-4760,-36680,14700,238,-897,-67, 1020.56, 28.50, 56.7
53295,-9,-75,1572,-32060,-4760,840,234,-894,-60, 1020.54, 28.50, 56.7
53345,25,-58,1352,-49840,26740,9170,225,-885,-64, 1020.54, 28.48, 56.7
53395,1,-58,1093,-55860,17430,9310,226,-894,-73, 1020.52, 28.48, 56.7
53445,11,-63,903,-58170,33810,7210,222,-892,-84, 1020.51, 28.48, 56.7
53495,-13,-91,797,-55580,21630,2310,208,-892,-90, 1020.54, 28.50, 56.7
53545,-82,-102,529,-58240,26880,3640,205,-894,-96, 1020.51, 28.50, 56.6
53595,-114,-134,424,-37030,6650,-2100,208,-901,-114, 1020.49, 28.44, 56.6
53645,-107,-180,380,-20160,4410,2030,214,-906,-115, 1020.46, 28.44, 56.6
53695,-123,-177,405,2870,-8120,1260,214,-898,-115, 1020.47, 28.41, 56.6
53745,-123,-196,612,32410,-14560,-420,207,-898,-109, 1020.47, 28.41, 56.6
53795,-106,-185,843,45360,-22680,-3010,213,-903,-103, 1020.52, 28.41, 56.6
53845,-23,-165,945,46550,-24640,-2030,201,-900,-91, 1020.48, 28.41, 56.6
53895,6,-147,1034,48930,-14840,70,211,-888,-88, 1020.51, 28.41, 56.5
53945,-79,-108,1095,50190,-17990,3360,226,-891,-84, 1020.55, 28.46, 56.6
53995,-101,-52,1220,46900,-20440,2800,229,-897,-75, 1020.53, 28.46, 56.6
54045,-96,-44,1192,35280,-19460,1330,234,-885,-76, 1020.53, 28.46, 56.7
54095,-50,11,1235,23380,-4200,-4270,234,-888,-75, 1020.57, 28.46, 56.7
54145,-67,-33,1185,20230,-11620,-2170,241,-897,-70, 1020.52, 28.46, 56.6
54195,-38,0,1205,16100,-4970,980,241,-900,-70, 1020.52, 28.44, 56.6
54245,-48,4,1137,10990,-11060,-5740,235,-895,-76, 1020.50, 28.46, 56.6
54295,-107,-375,1053,11830,-1120,-2870,243,-891,-82, 1020.53, 28.46, 56.5
54345,-39,46,1062,-8120,5320,-6020,234,-897,-82, 1020.51, 28.44, 56.5
54395,-16,-25,1009,-3150,-3220,2520,237,-901,-69, 1020.46, 28.48, 56.5
54445,-35,-18,1037,1190,-4270,4200,231,-910,-82, 1020.54, 28.48, 56.6
54495,-7,24,1003,-630,-4340,-2590,240,-901,-72, 1020.54, 28.46, 56.6
54545,-19,-5,1029,-1190,-3780,-140,234,-903,-76, 1020.55, 28.46, 56.5
54595,-30,-17,1031,-1750,-3290,630,243,-900,-76, 1020.52, 28.44, 56.5
54645,-29,-17,1029,-2520,-3220,630,234,-904,-84, 1020.51, 28.44, 56.5
54695,-34,-13,1040,-2170,-3850,700,232,-903,-81, 1020.63, 28.44, 56.5
54745,-58,-24,1047,-1610,-3990,700,234,-895,-78, 1020.56, 28.50, 56.5
54795,-30,-20,1030,-1400,-3640,1610,235,-901,-82, 1020.55, 28.50, 56.6
54845,-31,-19,1031,-1050,-3500,700,235,-900,-81, 1020.55, 28.48, 56.5
54895,-30,-17,1030,-840,-3570,700,234,-897,-78, 1020.57, 28.46, 56.5
54945,-30,-18,1030,-1330,-4620,700,232,-906,-78, 1020.51, 28.46, 56.5
54995,-30,-21,1027,-1960,-4340,630,235,-891,-79, 1020.54, 28.43, 56.5
55045,-31,-16,1036,-280,-3220,700,237,-906,-85, 1020.54, 28.43, 56.5
55095,-30,-19,1025,-1260,-4340,700,237,-906,-72, 1020.54, 28.48, 56.5
55145,-30,-21,1029,-1190,-3990,700,232,-904,-81, 1020.49, 28.44, 56.5
55195,-33,-17,1032,-1330,-3430,700,232,-903,-75, 1020.50, 28.44, 56.4
55245,-29,-17,1028,-1260,-4130,700,234,-903,-82, 1020.53, 28.46, 56.4
55295,-30,-22,1029,-1120,-4060,630,235,-903,-81, 1020.52, 28.46, 56.5
55345,-36,-22,1030,350,-5880,700,231,-903,-79, 1020.46, 28.44, 56.5
55395,-154,-3,1028,-1750,-3640,-3430,231,-907,-81, 1020.51, 28.48, 56.5
55445,-126,-58,1050,-770,-2240,-2030,232,-901,-79, 1020.51, 28.48, 56.5
55495,-266,36,1117,-2310,-7000,-2240,237,-898,-82, 1020.45, 28.46, 56.4
55545,-144,-40,1081,-3500,20860,-280,243,-900,-90, 1020.51, 28.46, 56.4
55595,-87,-26,988,3150,-6020,-17920,246,-901,-109, 1020.52, 28.46, 56.4
55645,-67,-3,1068,-7770,-14980,-26180,247,-882,-123, 1020.55, 28.48, 56.4
55695,83,-75,938,-16380,1260,-18970,252,-862,-118, 1020.53, 28.48, 56.5
55745,140,-24,1036,-4620,2800,-14630,250,-811,-111, 1020.57, 28.46, 56.4
55795,173,-34,962,7700,-6370,-9310,247,-790,-81, 1020.55, 28.48, 56.4
55845,172,-19,957,-980,-15260,-13720,243,-795,-91, 1020.57, 28.48, 56.5
55895,183,-24,1018,9310,-6440,10220,250,-838,-120, 1020.50, 28.48, 56.5
55945,153,45,1028,7840,-10850,19880,238,-877,-112, 1020.51, 28.48, 56.4
55995,61,6,1091,-1750,-5880,27090,237,-897,-105, 1020.49, 28.52, 56.5
56045,-70,19,994,-1260,-7490,29610,232,-895,-88, 1020.59, 28.52, 56.5
56095,17,-16,997,-18690,-7140,31290,231,-903,-81, 1020.54, 28.52, 56.5
56145,-205,-39,1029,1120,350,52290,232,-894,-70, 1020.53, 28.50, 56.5
56195,-265,0,996,12600,-7420,38640,237,-898,-69, 1020.49, 28.50, 56.4
56245,-320,8,1033,-1470,-9730,16940,241,-894,-66, 1020.56, 28.50, 56.4
56295,-115,0,1029,-2730,-12810,3220,247,-900,-61, 1020.55, 28.52, 56.4
56345,-71,-20,1032,-70,-9240,1470,234,-894,-67, 1020.52, 28.52, 56.5
56395,-129,0,1028,700,-7210,6230,240,-900,-66, 1020.48, 28.50, 56.4
56445,-126,33,1060,4340,910,3500,246,-897,-63, 1020.53, 28.50, 56.4
56495,-134,-9,1001,-210,1750,-3500,243,-904,-67, 1020.54, 28.50, 56.5
56545,-159,-14,1016,-4620,4900,-5600,244,-900,-70, 1020.51, 28.52, 56.5
56595,-93,27,1052,-3500,-70,-14280,243,-898,-76, 1020.44, 28.52, 56.5
56645,62,49,1052,-1540,-3500,-25690,247,-907,-76, 1020.45, 28.52, 56.5
56695,226,-23,1006,-4340,-9520,-23660,243,-900,-82, 1020.48, 28.48, 56.5
56744,226,-33,1039,5040,4970,-6440,244,-898,-90, 1020.56, 28.48, 56.5
56794,-36,-13,1037,-140,-420,-1820,244,-904,-88, 1020.51, 28.52, 56.5
56844,80,5,1032,-210,-2520,-840,253,-898,-84, 1020.54, 28.52, 56.4
56894,4,-1,1020,-2940,-3150,-3220,241,-900,-87, 1020.52, 28.50, 56.4
56944,-193,-31,1022,-3080,-4760,-4060,241,-900,-84, 1020.53, 28.48, 56.4
56994,-38,-13,1032,2660,-2590,1120,246,-900,-85, 1020.53, 28.48, 56.4
57044,-30,-4,1018,-2100,-4480,1820,241,-900,-87, 1020.55, 28.50, 56.4
57094,-32,-16,1026,-2590,-4410,1820,241,-900,-85, 1020.54, 28.50, 56.4
57144,-34,-13,1033,-280,-2940,700,253,-906,-88, 1020.53, 28.52, 56.5
57194,-33,-16,1030,-980,-4200,700,243,-900,-85, 1020.52, 28.52, 56.5
57244,-30,-13,1034,-1400,-3640,700,243,-906,-81, 1020.53, 28.52, 56.4
57294,-32,-14,1034,-1120,-4130,700,247,-904,-84, 1020.49, 28.55, 56.4
57344,-34,-13,1033,-980,-3710,700,241,-906,-84, 1020.51, 28.55, 56.6
57394,-30,-4,1065,-1050,-3570,700,241,-891,-82, 1020.58, 28.52, 56.5
57444,-85,-65,1766,23170,10290,-20300,238,-898,-85, 1020.54, 28.53, 56.5
57494,-46,0,1728,4130,-27860,-7910,241,-900,-81, 1020.54, 28.53, 56.5
57544,-12,-16,1546,-30660,10570,16870,238,-894,-70, 1020.54, 28.52, 56.4
57594,-32,-21,1162,-69860,7070,22960,240,-892,-72, 1020.56, 28.50, 56.4
57644,-3,-45,944,-66290,14840,2520,223,-894,-76, 1020.55, 28.50, 56.4
57694,-50,-45,670,-67060,13580,5040,223,-894,-87, 1020.57, 28.48, 56.4
57744,-67,-96,494,-52150,20370,4970,220,-897,-96, 1020.48, 28.48, 56.5
57794,-63,-107,356,-42070,13790,350,208,-900,-102, 1020.53, 28.46, 56.4
57844,-74,-149,355,-16870,2870,-2800,211,-909,-105, 1020.49, 28.46, 56.4
57894,-71,-180,462,2590,-5180,2730,213,-901,-109, 1020.51, 28.46, 56.4
57944,-108,-217,618,26740,-18480,-3500,211,-898,-99, 1020.55, 28.46, 56.4
57994,-57,-147,865,45500,-5600,3640,211,-892,-94, 1020.51, 28.46, 56.4
58044,-46,-156,1009,48160,-14630,1820,219,-895,-96, 1020.52, 28.48, 56.5
58094,69,-109,890,38920,-29470,-5250,223,-891,-85, 1020.51, 28.50, 56.5
58144,-68,-83,1268,56980,-14140,5320,222,-894,-75, 1020.44, 28.50, 56.3
58194,-110,-46,1271,38150,-13860,8820,232,-898,-79, 1020.46, 28.50, 56.3
58244,-113,-10,1206,27440,-2380,16380,246,-897,-84, 1020.53, 28.50, 56.4
58294,-54,-24,1234,30240,-12810,420,250,-909,-81, 1020.48, 28.48, 56.4
58344,-431,191,1177,-70770,-67270,-36680,250,-907,-88, 1020.56, 28.50, 56.4
58394,-21,-44,937,-9380,-5110,1330,256,-906,-82, 1020.50, 28.50, 56.5
58444,-48,-1,1014,4410,-1610,560,240,-897,-78, 1020.57, 28.46, 56.5
58494,-33,19,1030,-350,-3780,-3080,241,-901,-78, 1020.56, 28.46, 56.3
58544,-32,-21,1028,-5670,-4550,700,250,-906,-81, 1020.56, 28.50, 56.4
58594,-34,-46,1013,-3290,-4830,9030,250,-898,-85, 1020.55, 28.48, 56.4
58644,-42,-32,1030,-420,-3850,3150,240,-898,-82, 1020.49, 28.48, 56.4
58694,-25,-12,1020,-70,-3920,2590,244,-907,-78, 1020.54, 28.52, 56.4
58744,-36,-14,1039,-770,-3780,770,244,-906,-85, 1020.53, 28.52, 56.4
58794,-12,-155,1009,-7560,-10080,-39200,243,-900,-84, 1020.60, 28.52, 56.4
58844,-46,-219,992,-6580,-11410,-12740,240,-894,-79, 1020.56, 28.50, 56.4
58894,-37,-195,1030,12110,2660,11690,235,-900,-75, 1020.55, 28.50, 56.3
58944,3,-198,1051,-20020,0,1750,249,-894,-67, 1020.53, 28.52, 56.4
58994,-79,-54,986,25690,5950,3710,244,-889,-84, 1020.51, 28.50, 56.4
59044,11,37,909,-5670,7770,2730,244,-883,-76, 1020.48, 28.50, 56.3
59094,-23,126,983,4270,840,3430,243,-870,-67, 1020.50, 28.50, 56.3
59144,-15,163,886,630,-10570,-5460,240,-861,-61, 1020.56, 28.50, 56.3
59194,-26,224,1126,-12110,-15260,-14630,231,-867,-61, 1020.55, 28.53, 56.3
59244,42,202,1049,-7070,-4550,-630,228,-846,-64, 1020.53, 28.52, 56.3
59294,46,160,994,3080,-1050,-4270,234,-864,-66, 1020.57, 28.52, 56.3
59344,-51,181,1029,490,980,16800,241,-861,-67, 1020.51, 28.55, 56.3
59394,-94,162,1014,5460,0,19250,247,-867,-64, 1020.53, 28.55, 56.4
59444,51,129,1106,2450,-4340,6370,247,-876,-73, 1020.51, 28.55, 56.4
59494,-104,139,1032,3080,-10780,-10150,240,-880,-76, 1020.55, 28.52, 56.4
59544,-53,-34,1093,-12390,-3080,-1260,252,-879,-72, 1020.58, 28.52, 56.3
59594,-78,32,1056,-15610,15330,10290,243,-903,-78, 1020.56, 28.52, 56.3
59644,-53,-90,1081,18480,-2660,-8400,235,-904,-82, 1020.55, 28.52, 56.4
59694,59,-52,988,-3500,-4900,10080,232,-912,-78, 1020.55, 28.50, 56.3
59744,-89,-197,1037,-2590,-1820,15890,234,-915,-76, 1020.50, 28.53, 56.3
59794,-112,-279,1004,-1330,-1750,-13790,223,-924,-73, 1020.54, 28.53, 56.4
59844,-46,-289,1028,2660,-7770,-11900,213,-919,-69, 1020.55, 28.53, 56.3
59894,21,-211,1023,630,-9660,-13370,213,-912,-73, 1020.57, 28.53, 56.3
59944,37,-200,1043,-5530,-3710,-10080,205,-922,-76, 1020.47, 28.53, 56.4
59994,-5,-172,988,-910,-6930,4410,217,-922,-84, 1020.50, 28.55, 56.4
60044,4,-93,1001,-770,-3990,5040,217,-918,-78, 1020.52, 28.55, 56.4
60094,-35,-56,1013,-4900,-4550,2870,226,-913,-87, 1020.55, 28.52, 56.3
60144,-103,-33,1004,2730,-1330,-560,232,-909,-78, 1020.52, 28.53, 56.3
60194,-26,95,1033,-1190,210,5250,235,-907,-78, 1020.57, 28.53, 56.4
60244,-8,120,1002,2030,-1540,2450,228,-895,-90, 1020.50, 28.55, 56.4
60294,7,132,1135,3500,-3080,3780,241,-898,-79, 1020.55, 28.55, 56.4
60344,-26,158,1063,5460,-1470,5110,229,-892,-81, 1020.53, 28.55, 56.4
60394,-68,68,1027,-1260,-4130,1330,246,-892,-76, 1020.52, 28.50, 56.4
60444,23,41,991,-2800,-3570,490,238,-886,-73, 1020.50, 28.50, 56.4
60494,-41,-21,1019,-3990,-4340,5880,243,-897,-78, 1020.52, 28.53, 56.4
60544,-33,-45,1032,-2240,-3920,3290,250,-889,-79, 1020.54, 28.53, 56.4
60594,-41,-24,1033,-630,-3850,840,246,-885,-79, 1020.62, 28.52, 56.4
60644,-36,-23,1032,-2660,-3990,630,246,-892,-82, 1020.56, 28.53, 56.4
60694,-176,-64,1079,560,14560,2170,244,-897,-76, 1020.63, 28.53, 56.4
60744,-17,-26,1013,-910,-1680,630,246,-892,-87, 1020.58, 28.55, 56.4
60794,-27,-18,1028,-1330,-7490,700,252,-891,-84, 1020.48, 28.55, 56.4
60844,-30,-22,1028,-1260,-5740,700,240,-888,-78, 1020.53, 28.57, 56.4
60894,-36,-22,1033,-1260,-4760,700,243,-886,-79, 1020.53, 28.53, 56.4
60944,-33,-20,1030,-1190,-4340,700,238,-894,-82, 1020.47, 28.53, 56.4
60994,-33,-23,1034,-1120,-4200,630,244,-897,-79, 1020.55, 28.55, 56.4
61044,-32,-21,1031,-1120,-4130,700,249,-889,-78, 1020.52, 28.53, 56.4
61094,-32,-21,1033,-1120,-4130,700,243,-895,-76, 1020.49, 28.53, 56.5
61144,-34,-21,1030,-1190,-4130,700,247,-895,-81, 1020.57, 28.55, 56.5
61194,-33,-22,1031,-1120,-3990,700,247,-892,-72, 1020.52, 28.55, 56.5
61244,-34,-21,1031,-1190,-4060,700,243,-892,-73, 1020.54, 28.55, 56.4
61294,-33,-21,1032,-1120,-3990,630,238,-888,-76, 1020.54, 28.53, 56.4
61344,-33,-20,1034,-1120,-3990,700,240,-892,-79, 1020.53, 28.53, 56.5
61394,-32,-21,1032,-1120,-3920,700,246,-894,-75, 1020.50, 28.57, 56.5
61444,-34,-21,1034,-1190,-4060,700,246,-891,-81, 1020.49, 28.57, 56.5
61494,-31,-24,1030,-1120,-3990,700,238,-895,-72, 1020.48, 28.55, 56.5
61544,-33,-19,1035,-1190,-4060,700,243,-892,-79, 1020.46, 28.59, 56.5
61594,-32,-22,1029,-1120,-3920,700,246,-897,-75, 1020.54, 28.59, 56.5
61644,-34,-21,1033,-1120,-3990,700,243,-883,-73, 1020.54, 28.55, 56.5
61694,-31,-21,1030,-1190,-3990,700,244,-894,-76, 1020.47, 28.55, 56.6
61743,-34,-22,1035,-1190,-4060,700,241,-888,-79, 1020.47, 28.57, 56.4
61793,-34,-20,1030,-1190,-4060,700,237,-889,-82, 1020.49, 28.53, 56.4
61843,-32,-21,1032,-1120,-4060,700,244,-888,-76, 1020.53, 28.53, 56.6
61893,-33,-22,1030,-1190,-4130,700,235,-894,-79, 1020.49, 28.55, 56.6
61943,-33,-21,1033,-1190,-3990,700,241,-888,-70, 1020.54, 28.55, 56.5
61993,-34,-20,1032,-1190,-3990,700,246,-889,-81, 1020.51, 28.55, 56.5
62043,-32,-21,1033,-1190,-3990,700,243,-889,-75, 1020.58, 28.61, 56.5
62093,-32,-21,1032,-1190,-4060,700,244,-895,-82, 1020.60, 28.61, 56.6
62143,-32,-22,1031,-1190,-4060,700,243,-898,-72, 1020.61, 28.53, 56.5
62193,-33,-21,1032,-1260,-4060,700,247,-892,-79, 1020.58, 28.57, 56.5
62243,-33,-23,1030,-1190,-3990,700,246,-895,-72, 1020.44, 28.57, 56.6
62293,-33,-20,1032,-1260,-4060,770,246,-886,-75, 1020.47, 28.55, 56.6
62343,-31,-22,1031,-1190,-3920,700,241,-888,-79, 1020.51, 28.55, 56.5
62393,-34,-21,1035,-1260,-3990,770,238,-894,-75, 1020.55, 28.57, 56.5
62443,-30,-21,1032,-1190,-3990,700,244,-892,-70, 1020.58, 28.55, 56.5
62493,-34,-20,1035,-1260,-3990,700,249,-892,-78, 1020.51, 28.55, 56.5
62543,-31,-23,1028,-1260,-3990,770,246,-892,-73, 1020.51, 28.57, 56.5
62593,-33,-21,1035,-1190,-3990,700,247,-903,-76, 1020.52, 28.57, 56.5
62643,-33,-23,1030,-1190,-3850,770,247,-897,-82, 1020.45, 28.59, 56.5
62693,-33,-21,1032,-1260,-3920,700,235,-892,-79, 1020.51, 28.55, 56.5
62743,-34,-21,1030,-1260,-3990,770,243,-895,-78, 1020.55, 28.55, 56.5
62793,-32,-21,1031,-1260,-3990,770,244,-897,-85, 1020.56, 28.55, 56.5
62843,-31,-22,1033,-1260,-3990,770,243,-895,-87, 1020.58, 28.55, 56.6
62893,-32,-20,1032,-1190,-3990,770,241,-895,-79, 1020.55, 28.55, 56.5
62943,-34,-21,1031,-1190,-3920,700,241,-895,-82, 1020.53, 28.57, 56.5
62993,-32,-22,1032,-1190,-3920,770,243,-879,-85, 1020.52, 28.57, 56.5
63043,-33,-22,1031,-1260,-3990,770,243,-897,-75, 1020.50, 28.57, 56.4
63093,-31,-23,1031,-1260,-4060,770,238,-885,-78, 1020.49, 28.59, 56.4
63143,-32,-22,1034,-1260,-4060,770,243,-891,-82, 1020.53, 28.59, 56.5
63193,-31,-21,1030,-1190,-4060,770,244,-885,-78, 1020.54, 28.57, 56.5
63243,-33,-20,1034,-1260,-4130,770,255,-885,-78, 1020.58, 28.57, 56.5
63293,-30,-21,1032,-1190,-3850,770,264,-895,-81, 1020.50, 28.59, 56.5
63343,-35,-22,1032,-1260,-3920,770,274,-873,-85, 1020.57, 28.59, 56.5
63393,-32,-22,1034,-1260,-3920,770,339,-856,-88, 1020.52, 28.59, 56.5
63443,-32,-21,1030,-1260,-4060,770,700,-586,435, 1020.52, 28.61, 56.5
63493,-32,-22,1030,-1190,-3990,770,-396,-577,499, 1020.55, 28.61, 56.4
63543,-33,-21,1033,-1260,-3990,770,184,-889,-241, 1020.49, 28.59, 56.5
63593,-33,-22,1031,-1260,-3990,770,241,-880,-135, 1020.55, 28.61, 56.5
63643,-32,-23,1034,-1260,-3990,770,240,-879,-121, 1020.59, 28.61, 56.5
63693,-31,-22,1028,-1260,-3990,770,244,-876,-121, 1020.53, 28.55, 56.5
63743,-33,-21,1033,-1260,-4060,770,244,-879,-133, 1020.56, 28.55, 56.5
63793,-30,-22,1031,-1260,-4060,770,265,-876,-174, 1020.55, 28.59, 56.5
63843,-33,-22,1036,-1260,-3990,770,307,-898,-336, 1020.56, 28.62, 56.5
63893,-32,-22,1031,-1260,-3850,770,-1155,-975,-952, 1020.52, 28.62, 56.5
63943,-32,-22,1034,-1260,-3920,770,1483,-1084,1203, 1020.52, 28.61, 56.5
63993,-31,-21,1030,-1260,-3990,770,652,-936,-93, 1020.52, 28.61, 56.4
64043,-33,-21,1033,-1260,-3920,770,309,-895,-108, 1020.53, 28.59, 56.4
64093,-32,-22,1032,-1260,-3990,770,268,-888,-96, 1020.54, 28.59, 56.4
64143,-32,-22,1033,-1260,-3990,770,246,-892,-91, 1020.57, 28.59, 56.5
64193,-31,-21,1033,-1260,-3990,770,255,-894,-85, 1020.52, 28.62, 56.5
64243,-33,-22,1033,-1260,-3920,770,252,-897,-79, 1020.53, 28.59, 56.5
64293,-34,-22,1032,-1260,-3920,770,246,-898,-78, 1020.47, 28.59, 56.5
64343,-32,-24,1028,-1260,-3920,770,246,-894,-81, 1020.54, 28.61, 56.5
64393,-33,-21,1034,-1260,-3990,770,246,-894,-78, 1020.55, 28.61, 56.5
64443,-29,-21,1028,-1260,-3990,770,240,-888,-76, 1020.47, 28.61, 56.4
64493,-33,-20,1031,-1260,-3990,770,244,-889,-81, 1020.58, 28.57, 56.4
64543,-30,-22,1029,-1260,-3920,770,247,-891,-84, 1020.56, 28.57, 56.4
64593,-34,-21,1032,-1260,-3990,770,244,-892,-81, 1020.56, 28.61, 56.4
64643,-32,-20,1027,-1260,-3920,770,246,-892,-81, 1020.53, 28.61, 56.4
64693,-33,-21,1030,-1260,-4060,770,246,-900,-79, 1020.50, 28.62, 56.4
64743,-33,-21,1030,-1330,-3990,770,243,-895,-82, 1020.54, 28.59, 56.4
64793,-32,-21,1029,-1260,-3990,770,241,-894,-73, 1020.58, 28.59, 56.4
64843,-32,-22,1030,-1260,-3920,770,244,-895,-81, 1020.58, 28.57, 56.4
64893,-32,-23,1033,-1260,-3990,770,250,-892,-76, 1020.52, 28.57, 56.4
64943,-32,-20,1030,-1260,-3920,770,229,-891,-76, 1020.54, 28.57, 56.3
64993,-32,-21,1032,-1260,-3920,770,244,-891,-81, 1020.57, 28.59, 56.3
65043,-34,-22,1031,-1260,-3990,770,246,-897,-81, 1020.53, 28.59, 56.3
65093,-34,-21,1030,-1260,-3990,770,241,-891,-79, 1020.49, 28.61, 56.3
65143,-32,-22,1031,-1260,-4060,770,246,-889,-81, 1020.51, 28.61, 56.4
65193,-34,-23,1031,-1260,-3920,770,253,-895,-75, 1020.60, 28.57, 56.3
65243,-33,-21,1029,-1260,-3990,770,247,-891,-76, 1020.60, 28.59, 56.3
65293,-30,-23,1029,-1260,-3920,770,247,-898,-82, 1020.62, 28.59, 56.3
65343,-32,-21,1033,-1260,-3920,770,243,-898,-73, 1020.59, 28.61, 56.3
65393,-33,-21,1031,-1260,-3920,770,238,-901,-85, 1020.53, 28.57, 56.3
65443,-33,-21,1034,-1260,-3990,770,238,-888,-88, 1020.58, 28.57, 56.2
65493,-32,-20,1029,-1260,-3920,770,238,-897,-87, 1020.57, 28.57, 56.2
65543,-33,-21,1032,-1260,-3990,770,247,-889,-79, 1020.56, 28.57, 56.3
65593,-30,-22,1030,-1260,-3920,770,243,-889,-79, 1020.52, 28.59, 56.2
65643,-32,-22,1034,-1260,-3920,770,244,-889,-82, 1020.50, 28.61, 56.2
65693,-31,-22,1031,-1260,-3990,770,247,-889,-81, 1020.51, 28.61, 56.2
65743,-32,-22,1035,-1330,-3990,770,243,-895,-76, 1020.43, 28.61, 56.2
65793,-31,-22,1031,-1330,-3990,770,246,-895,-82, 1020.50, 28.61, 56.3
65843,-32,-21,1032,-1260,-3990,770,246,-886,-81, 1020.47, 28.59, 56.2
65893,-33,-21,1030,-1260,-3850,770,247,-894,-75, 1020.55, 28.62, 56.2
65943,-33,-22,1032,-1260,-3850,770,250,-892,-82, 1020.57, 28.62, 56.3
65993,-32,-23,1034,-1260,-3920,770,246,-897,-87, 1020.49, 28.62, 56.3
66043,-29,-22,1030,-1260,-3850,770,240,-895,-81, 1020.55, 28.62, 56.2
66093,-30,-20,1032,-1330,-3990,770,249,-900,-84, 1020.55, 28.62, 56.1
66143,-31,-23,1031,-1330,-3920,770,243,-886,-76, 1020.53, 28.64, 56.1
66193,-33,-22,1033,-1330,-3990,770,238,-897,-76, 1020.55, 28.64, 56.2
66243,-32,-21,1030,-1260,-3920,770,246,-892,-79, 1020.63, 28.62, 56.2
66293,-34,-22,1034,-1330,-3990,770,241,-888,-79, 1020.48, 28.64, 56.2
66343,-30,-21,1030,-1260,-3920,770,241,-898,-85, 1020.55, 28.64, 56.1
66393,-34,-20,1033,-1260,-3990,770,241,-891,-72, 1020.58, 28.66, 56.1
66443,-31,-23,1030,-1260,-3920,770,241,-894,-81, 1020.55, 28.66, 56.2
66493,-34,-22,1034,-1260,-4060,770,244,-897,-78, 1020.55, 28.64, 56.1
66543,-30,-21,1031,-1260,-3920,770,244,-886,-78, 1020.53, 28.62, 56.1
66593,-32,-21,1033,-1260,-3920,770,240,-895,-79, 1020.55, 28.62, 56.0
66643,-31,-22,1030,-1260,-3920,840,249,-888,-87, 1020.56, 28.61, 56.0
66693,-32,-22,1032,-1260,-3990,770,243,-886,-78, 1020.52, 28.61, 56.1
66742,-31,-23,1030,-1330,-3920,770,244,-889,-82, 1020.52, 28.64, 56.1
66791,-30,-23,1033,-1260,-3990,840,240,-889,-78, 1020.49, 28.64, 56.1
66841,-32,-21,1032,-1330,-3990,840,244,-892,-79, 1020.51, 28.64, 56.0
66891,-32,-21,1033,-1260,-3850,770,246,-889,-73, 1020.54, 28.68, 56.0
66941,-31,-22,1032,-1330,-3850,770,244,-889,-75, 1020.54, 28.68, 56.0
66991,-30,-21,1031,-1260,-3850,770,243,-889,-81, 1020.53, 28.64, 56.1
67041,-32,-21,1034,-1330,-3990,840,252,-892,-82, 1020.49, 28.64, 56.1
67091,-31,-23,1031,-1330,-3920,770,244,-897,-76, 1020.56, 28.64, 56.0
67141,-33,-21,1033,-1330,-3990,840,249,-894,-81, 1020.54, 28.64, 56.0
67191,-30,-22,1032,-1260,-3850,840,243,-892,-75, 1020.60, 28.64, 56.1
67241,-31,-22,1033,-1330,-3990,840,243,-889,-81, 1020.50, 28.61, 56.0
67291,-32,-22,1031,-1260,-3920,840,241,-891,-82, 1020.54, 28.62, 56.0
67341,-32,-20,1035,-1330,-3990,770,241,-891,-78, 1020.53, 28.62, 56.0
67391,-30,-20,1030,-1260,-3990,770,249,-888,-81, 1020.60, 28.66, 56.0
67441,-32,-20,1034,-1330,-3990,840,244,-883,-87, 1020.60, 28.66, 56.1
67491,-32,-22,1032,-1330,-4060,840,241,-885,-78, 1020.56, 28.66, 56.0
67541,-30,-22,1035,-1330,-3990,840,249,-894,-81, 1020.52, 28.64, 56.0
67591,-31,-22,1031,-1260,-3850,840,244,-894,-87, 1020.55, 28.64, 56.0
67641,-30,-21,1032,-1260,-3850,840,246,-897,-79, 1020.56, 28.64, 55.9
67691,-31,-21,1032,-1330,-3990,840,249,-883,-76, 1020.55, 28.62, 55.9
67741,-33,-21,1032,-1330,-3990,770,238,-889,-84, 1020.50, 28.62, 56.0
67791,-32,-22,1032,-1330,-3990,840,244,-900,-84, 1020.53, 28.64, 56.0
67841,-29,-20,1030,-1330,-3920,840,249,-892,-79, 1020.53, 28.64, 55.9
67891,-32,-21,1032,-1330,-3920,840,244,-894,-76, 1020.53, 28.66, 56.0
67941,-30,-24,1031,-1330,-3920,840,250,-895,-82, 1020.47, 28.64, 56.0
67991,-31,-22,1031,-1260,-3920,770,244,-898,-82, 1020.57, 28.64, 55.9
68041,-33,-24,1030,-1330,-3920,770,244,-889,-85, 1020.49, 28.66, 55.9
68091,-32,-20,1032,-1330,-3990,840,243,-889,-81, 1020.55, 28.66, 55.9
68141,-32,-22,1030,-1330,-3920,770,241,-885,-78, 1020.55, 28.64, 55.9
68191,-33,-21,1034,-1330,-3990,840,240,-892,-82, 1020.57, 28.64, 55.9
68241,-30,-22,1030,-1260,-3850,770,244,-891,-79, 1020.52, 28.64, 55.9
68291,-31,-21,1034,-1260,-3850,840,250,-892,-78, 1020.56, 28.66, 55.9
68341,-32,-23,1031,-1330,-3920,840,246,-897,-72, 1020.51, 28.66, 55.9
68391,-32,-23,1035,-1330,-4060,840,235,-891,-79, 1020.49, 28.68, 55.8
68441,-32,-23,1031,-1330,-3990,840,241,-891,-76, 1020.54, 28.68, 55.8
68491,-33,-20,1034,-1330,-3990,770,243,-891,-78, 1020.54, 28.68, 55.8
68541,-30,-23,1032,-1330,-3920,770,237,-885,-78, 1020.55, 28.66, 55.8
68591,-32,-20,1034,-1330,-3920,840,246,-897,-81, 1020.53, 28.71, 55.8
68641,-32,-22,1028,-1330,-3920,770,246,-889,-79, 1020.53, 28.71, 55.9
68691,-31,-22,1035,-1260,-3850,840,247,-888,-76, 1020.58, 28.70, 55.9
68741,-32,-23,1031,-1260,-3990,770,256,-894,-84, 1020.52, 28.70, 55.8
68791,-31,-22,1031,-1330,-3990,770,249,-894,-75, 1020.51, 28.71, 55.8
68841,-31,-21,1031,-1330,-3990,840,241,-885,-78, 1020.57, 28.66, 55.8
68891,-31,-21,1031,-1260,-3920,770,240,-892,-75, 1020.60, 28.66, 55.7
68941,-33,-22,1034,-1260,-3920,840,247,-892,-75, 1020.58, 28.70, 55.7
68991,-32,-22,1033,-1330,-3920,840,249,-895,-76, 1020.58, 28.70, 55.8
69041,-32,-24,1033,-1330,-3920,840,237,-888,-82, 1020.49, 28.64, 55.7
69091,-31,-23,1032,-1260,-3920,840,243,-888,-79, 1020.52, 28.62, 55.7
69141,-32,-22,1033,-1330,-3920,840,250,-892,-79, 1020.60, 28.62, 55.7
69191,-31,-23,1032,-1330,-3920,840,246,-891,-76, 1020.55, 28.64, 55.7
69241,-32,-23,1035,-1260,-3920,840,247,-897,-78, 1020.51, 28.64, 55.6
69291,-31,-23,1030,-1260,-3920,840,244,-891,-73, 1020.49, 28.68, 55.7
69341,-33,-22,1034,-1330,-3990,840,246,-891,-76, 1020.58, 28.66, 55.7
69391,-33,-21,1031,-1330,-3990,840,241,-885,-70, 1020.57, 28.66, 55.7
69441,-33,-22,1033,-1330,-3990,770,243,-894,-87, 1020.54, 28.64, 55.7
69491,-32,-22,1032,-1330,-3920,840,241,-889,-73, 1020.55, 28.64, 55.7
69541,-31,-22,1034,-1330,-3920,840,253,-888,-82, 1020.58, 28.68, 55.7
69591,-31,-22,1029,-1330,-3850,770,234,-888,-72, 1020.54, 28.66, 55.7
69641,-32,-21,1032,-1260,-3850,840,246,-891,-76, 1020.52, 28.66, 55.7
69691,-32,-19,1031,-1260,-3920,770,244,-894,-75, 1020.49, 28.70, 55.7
69741,-32,-22,1033,-1330,-3990,840,238,-888,-84, 1020.58, 28.66, 55.7
69791,-33,-22,1034,-1330,-3990,840,237,-892,-84, 1020.54, 28.66, 55.6
69841,-33,-22,1032,-1330,-3920,840,240,-891,-79, 1020.54, 28.68, 55.6
69891,-32,-21,1034,-1330,-3990,840,238,-891,-84, 1020.57, 28.68, 55.7
69941,-31,-22,1030,-1330,-3920,770,247,-892,-73, 1020.51, 28.68, 55.7
69991,-32,-22,1035,-1330,-3920,840,244,-885,-78, 1020.49, 28.68, 55.7
70041,-30,-23,1030,-1260,-3920,840,243,-897,-81, 1020.50, 28.68, 55.6
70091,-33,-19,1034,-1330,-3990,840,243,-889,-85, 1020.55, 28.68, 55.6
70141,-31,-22,1033,-1330,-3920,840,240,-885,-85, 1020.53, 28.68, 55.6
70191,-32,-22,1034,-1330,-3990,840,246,-895,-70, 1020.46, 28.68, 55.5
70241,-32,-21,1031,-1330,-3920,840,241,-883,-76, 1020.50, 28.70, 55.5
70291,-32,-21,1033,-1330,-3920,840,247,-892,-75, 1020.57, 28.70, 55.6
70341,-32,-23,1031,-1260,-3920,840,243,-889,-84, 1020.55, 28.66, 55.6
70391,-31,-22,1034,-1330,-3990,840,243,-894,-76, 1020.43, 28.66, 55.6
70441,-31,-23,1030,-1330,-3920,840,240,-895,-81, 1020.62, 28.70, 55.6
70491,-33,-23,1037,-1330,-3990,840,243,-892,-79, 1020.59, 28.66, 55.6
70541,-31,-23,1031,-1260,-3850,840,243,-897,-76, 1020.56, 28.66, 55.6
70591,-33,-21,1033,-1330,-3920,840,243,-895,-79, 1020.50, 28.68, 55.6
70641,-30,-22,1031,-1260,-3920,840,238,-894,-79, 1020.52, 28.68, 55.5
70691,-32,-21,1034,-1330,-3990,840,244,-888,-76, 1020.51, 28.68, 55.5
70741,-31,-21,1033,-1330,-3990,840,243,-897,-75, 1020.57, 28.68, 55.5
70791,-32,-22,1033,-1330,-3920,840,240,-889,-81, 1020.57, 28.68, 55.6
70841,-32,-22,1034,-1330,-3990,840,241,-882,-76, 1020.53, 28.71, 55.5
70891,-31,-21,1032,-1260,-3920,840,249,-895,-81, 1020.51, 28.70, 55.5
70941,-32,-22,1033,-1260,-3920,840,241,-891,-82, 1020.53, 28.70, 55.6
70991,-33,-21,1034,-1260,-3920,840,243,-900,-78, 1020.55, 28.68, 55.6
71041,-32,-22,1033,-1330,-3920,840,243,-879,-79, 1020.50, 28.68, 55.6
71091,-32,-21,1033,-1330,-3920,840,250,-892,-78, 1020.53, 28.68, 55.5
71141,-33,-21,1034,-1330,-3990,840,241,-886,-79, 1020.54, 28.70, 55.5
71191,-32,-24,1032,-1260,-3920,840,247,-888,-78, 1020.57, 28.70, 55.5
71241,-32,-21,1035,-1330,-3920,840,243,-892,-82, 1020.47, 28.71, 55.5
71291,-31,-22,1032,-1330,-3920,840,243,-889,-87, 1020.50, 28.71, 55.4
71341,-32,-22,1034,-1330,-3990,840,244,-898,-81, 1020.55, 28.70, 55.4
71391,-30,-22,1033,-1330,-3990,840,234,-889,-78, 1020.56, 28.71, 55.4
71441,-32,-22,1036,-1330,-3990,840,243,-895,-76, 1020.49, 28.71, 55.4
71491,-31,-22,1030,-1260,-3850,840,240,-892,-79, 1020.56, 28.68, 55.4
71541,-31,-21,1036,-1330,-3850,840,240,-894,-76, 1020.58, 28.68, 55.4
71591,-30,-22,1032,-1260,-3920,840,246,-897,-88, 1020.53, 28.73, 55.4
71641,-31,-20,1034,-1330,-3920,840,249,-882,-82, 1020.59, 28.64, 55.4
71691,-30,-23,1032,-1330,-3990,840,250,-898,-70, 1020.53, 28.64, 55.4
71740,-32,-21,1032,-1330,-3990,840,238,-891,-76, 1020.51, 28.70, 55.4
71790,-32,-21,1032,-1330,-4060,840,240,-891,-76, 1020.52, 28.70, 55.4
71840,-32,-23,1032,-1330,-3920,840,244,-889,-72, 1020.54, 28.71, 55.4
71890,-32,-20,1036,-1330,-3920,840,240,-894,-78, 1020.56, 28.73, 55.4
71940,-30,-22,1032,-1260,-3850,840,237,-892,-84, 1020.52, 28.73, 55.4
71990,-31,-22,1033,-1330,-3990,840,250,-894,-73, 1020.55, 28.70, 55.3
72040,-31,-22,1031,-1330,-3920,840,244,-891,-75, 1020.56, 28.70, 55.3
72090,-31,-22,1036,-1330,-3990,840,247,-894,-79, 1020.57, 28.70, 55.4
72140,-31,-22,1029,-1330,-3920,770,244,-898,-78, 1020.55, 28.70, 55.4
72190,-32,-23,1034,-1330,-3920,840,241,-891,-73, 1020.50, 28.70, 55.4
72240,-31,-22,1031,-1260,-3850,840,243,-889,-73, 1020.52, 28.71, 55.3
72290,-32,-20,1035,-1330,-3850,840,247,-894,-79, 1020.53, 28.70, 55.3
72340,-32,-23,1031,-1330,-3920,840,243,-889,-75, 1020.55, 28.70, 55.3
72390,-31,-22,1033,-1330,-3920,840,241,-891,-85, 1020.53, 28.68, 55.3
72440,-30,-23,1031,-1330,-3920,840,244,-895,-72, 1020.58, 28.68, 55.4
72490,-32,-22,1033,-1330,-3920,840,237,-894,-87, 1020.53, 28.70, 55.3
72540,-31,-22,1033,-1330,-3920,840,246,-889,-79, 1020.51, 28.68, 55.3
72590,-31,-23,1033,-1330,-3920,840,241,-895,-79, 1020.57, 28.68, 55.3
72640,-31,-22,1033,-1330,-3920,840,246,-894,-72, 1020.55, 28.73, 55.3
72690,-32,-22,1032,-1330,-3850,840,237,-889,-78, 1020.50, 28.73, 55.3
72740,-33,-21,1034,-1330,-3920,840,241,-892,-81, 1020.53, 28.73, 55.3
72790,-31,-22,1033,-1330,-3920,840,234,-894,-79, 1020.54, 28.71, 55.3
72840,-31,-21,1034,-1330,-3920,840,247,-892,-82, 1020.47, 28.71, 55.3
72890,-31,-23,1033,-1330,-3850,840,243,-897,-82, 1020.52, 28.71, 55.3
72940,-34,-21,1034,-1260,-3920,840,244,-892,-82, 1020.56, 28.71, 55.3
72990,-32,-21,1031,-1330,-3850,840,240,-895,-81, 1020.59, 28.73, 55.3
73040,-30,-23,1035,-1330,-3990,840,241,-892,-76, 1020.60, 28.70, 55.3
73090,-30,-24,1033,-1330,-3990,840,241,-900,-73, 1020.52, 28.70, 55.2
73140,-33,-23,1034,-1330,-3920,840,244,-894,-79, 1020.53, 28.70, 55.2
73190,-30,-22,1031,-1330,-3920,840,241,-894,-78, 1020.54, 28.71, 55.2
73240,-32,-22,1035,-1330,-3850,840,246,-898,-81, 1020.51, 28.71, 55.2
73290,-31,-23,1031,-1330,-3920,840,247,-895,-79, 1020.54, 28.71, 55.2
73340,-31,-21,1034,-1330,-3990,840,244,-886,-81, 1020.47, 28.71, 55.2
73390,-32,-23,1032,-1260,-3920,840,240,-885,-85, 1020.49, 28.71, 55.2
73440,-32,-23,1033,-1330,-3990,840,243,-897,-76, 1020.59, 28.75, 55.2
73490,-31,-22,1032,-1330,-3920,840,246,-889,-76, 1020.50, 28.75, 55.2
73540,-33,-22,1034,-1330,-3920,840,240,-900,-84, 1020.47, 28.71, 55.2
73590,-32,-22,1033,-1330,-3920,840,243,-894,-82, 1020.48, 28.71, 55.1
73640,-33,-23,1033,-1330,-3850,840,247,-895,-81, 1020.54, 28.73, 55.2
73690,-32,-22,1032,-1330,-3920,840,241,-891,-75, 1020.65, 28.70, 55.2
73740,-32,-22,1033,-1330,-3990,840,241,-892,-85, 1020.61, 28.70, 55.1
73790,-33,-21,1033,-1330,-3990,840,247,-892,-78, 1020.60, 28.73, 55.1
73840,-31,-22,1032,-1330,-3920,840,241,-889,-79, 1020.55, 28.73, 55.2
73890,-32,-21,1032,-1330,-3920,840,250,-891,-73, 1020.53, 28.73, 55.1
73940,-31,-22,1031,-1330,-3920,840,241,-888,-78, 1020.47, 28.73, 55.1
73990,-31,-22,1036,-1330,-3990,840,238,-892,-79, 1020.50, 28.73, 55.1
74040,-31,-22,1033,-1330,-3990,840,243,-892,-82, 1020.56, 28.75, 55.1
74090,-31,-22,1033,-1330,-3920,840,247,-892,-88, 1020.55, 28.75, 55.2
74140,-30,-22,1034,-1330,-3920,840,240,-891,-85, 1020.56, 28.73, 55.1
74190,-32,-21,1034,-1330,-3920,840,247,-891,-78, 1020.52, 28.73, 55.1
74240,-31,-22,1030,-1330,-3920,840,246,-891,-81, 1020.54, 28.73, 55.1
74290,-33,-23,1035,-1330,-3990,840,247,-886,-79, 1020.59, 28.71, 55.1
74340,-30,-23,1033,-1330,-3990,840,238,-897,-76, 1020.54, 28.73, 55.1
74390,-31,-20,1033,-1330,-3990,840,249,-891,-84, 1020.54, 28.73, 55.1
74440,-33,-22,1033,-1330,-3990,840,246,-897,-79, 1020.60, 28.79, 55.1
74490,-31,-22,1035,-1330,-3990,840,243,-898,-81, 1020.59, 28.79, 55.1
74540,-30,-21,1033,-1330,-3920,840,241,-897,-79, 1020.53, 28.73, 55.1
74590,-33,-21,1032,-1330,-3920,840,244,-894,-81, 1020.53, 28.73, 55.1
74640,-32,-22,1030,-1330,-3990,840,250,-886,-85, 1020.51, 28.73, 55.1
74690,-29,-20,1032,-1330,-3990,840,246,-891,-76, 1020.51, 28.73, 55.1
74740,-34,-21,1034,-1330,-3990,840,244,-888,-79, 1020.53, 28.73, 55.0
74790,-31,-23,1031,-1330,-3850,840,244,-889,-81, 1020.50, 28.79, 55.0
74840,-33,-23,1034,-1330,-3920,840,241,-889,-79, 1020.52, 28.73, 55.0
74890,-31,-22,1032,-1330,-3850,840,240,-895,-79, 1020.51, 28.73, 55.0
74940,-32,-22,1033,-1330,-3920,840,243,-891,-76, 1020.54, 28.79, 55.0
74990,-29,-22,1032,-1330,-3920,840,241,-891,-81, 1020.59, 28.79, 55.0
75040,-32,-22,1035,-1330,-3990,840,243,-894,-81, 1020.58, 28.73, 55.0
